# xPDFsuite Configuration #
[PDF]
wavelength = 0.1
dataformat = QA
inputfile = B3_Bronze-3nm_ss_27.chi
backgroundfile = B3_Li-bkg_ss.chi
mode = xray
bgscale = 0.98705
composition = Ti O2
outputtype = iq
qmaxinst = 23.0
qmin = 0.1
qmax = 23.0
rmax = 30.0
rmin = 0.0
rstep = 0.01
rpoly = 0.9

[Misc]
inputdir = E:/Beamtime/PETRA-III_September-2019/BeamData/processed/Run1/B3/chi/chi_w_sigmas/chi_scaled
savedir = E:/Beamtime/PETRA-III_September-2019/BeamData/processed/Run1/B3
backgroundfilefull = E:/Beamtime/PETRA-III_September-2019/BeamData/processed/Run1/B3/chi/chi_w_sigmas/chi_scaled/B3_Li-bkg_ss.chi

#### start data
#S 1
#L Q($\AA^{-1}$)  intensity(a.u.)
0.111649 0
0.126965 0
0.142282 0
0.157598 0
0.172914 0
0.188231 0
0.203547 0
0.218864 0
0.23418 0
0.249496 0
0.264813 0
0.280129 0
0.295445 0
0.310762 0
0.326078 0
0.341394 0
0.356711 0
0.372027 0
0.387343 0
0.40266 0
0.417976 0
0.433292 0
0.448609 0
0.463925 0
0.479241 0
0.494558 0
0.509874 0
0.525191 0
0.540507 0
0.555823 0
0.57114 0
0.586456 0
0.601772 0
0.617089 0
0.632405 0
0.647721 0
0.663038 0
0.678354 0
0.69367 0
0.708987 0
0.724303 0
0.739619 0
0.754936 0
0.770252 0
0.785568 0
0.800885 0
0.816201 0
0.831518 0
0.846834 0
0.86215 1.51666
0.877467 108891
0.892783 109736
0.908099 110461
0.923416 111907
0.938732 114083
0.954048 115923
0.969365 117115
0.984681 117022
0.999997 115198
1.01531 111951
1.03063 106489
1.04595 99822
1.06126 91841.8
1.07658 82561.8
1.0919 73488.6
1.10721 63404.9
1.12253 54393.1
1.13784 45435.6
1.15316 37426.2
1.16848 30507
1.18379 24100.7
1.19911 18891.7
1.21443 14197.8
1.22974 10461.7
1.24506 7479.74
1.26038 5217.67
1.27569 3705.63
1.29101 2748.4
1.30632 2393.21
1.32164 2660.6
1.33696 3497.66
1.35227 4822.16
1.36759 6546.7
1.38291 8440.67
1.39822 10523.8
1.41354 12533.8
1.42886 14372
1.44417 16167.6
1.45949 17892.2
1.4748 19797.2
1.49012 21886.3
1.50544 24594.9
1.52075 27981.6
1.53607 32460.8
1.55139 38290.1
1.5667 45041.7
1.58202 53708.8
1.59733 63011.6
1.61265 73265.2
1.62797 83807.5
1.64328 93705.9
1.6586 103238
1.67392 111048
1.68923 117270
1.70455 121563
1.71987 124114
1.73518 125262
1.7505 125392
1.76581 125447
1.78113 125232
1.79645 125322
1.81176 125287
1.82708 125161
1.8424 124522
1.85771 123523
1.87303 121840
1.88835 119543
1.90366 116851
1.91898 113822
1.93429 110705
1.94961 107690
1.96493 105051
1.98024 102879
1.99556 100766
2.01088 98705.9
2.02619 96054.6
2.04151 92977.9
2.05683 89183.4
2.07214 85065.8
2.08746 80835.7
2.10277 76530.9
2.11809 72694.8
2.13341 69069.1
2.14872 66076.3
2.16404 63592.3
2.17936 61578
2.19467 60003.7
2.20999 58693.3
2.22531 57687.5
2.24062 56760
2.25594 55897.3
2.27125 55041.4
2.28657 54188.8
2.30189 53414.7
2.3172 52640.6
2.33252 51951.3
2.34784 51299.7
2.36315 50774.2
2.37847 50473.6
2.39379 50206.3
2.4091 50317.1
2.42442 50351.4
2.43973 50618.5
2.45505 50896.6
2.47037 51163.5
2.48568 51578.3
2.501 51888.1
2.51632 52228.5
2.53163 52455.9
2.54695 52775.3
2.56226 53274
2.57758 53793
2.5929 54238.7
2.60821 54555.5
2.62353 54697.5
2.63885 54797.5
2.65416 54897.9
2.66948 55064
2.6848 55402
2.70011 55944.5
2.71543 56912.8
2.73074 58117.7
2.74606 59850.1
2.76138 62166.4
2.77669 65189.8
2.79201 69120.9
2.80733 73810.1
2.82264 79826.9
2.83796 87066.6
2.85328 95602.9
2.86859 105845
2.88391 116951
2.89922 129587
2.91454 142413
2.92986 155254
2.94517 167459
2.96049 178171
2.97581 187343
2.99112 193891
3.00644 198128
3.02176 199633
3.03707 198816
3.05239 195913
3.0677 191433
3.08302 185666
3.09834 179194
3.11365 172310
3.12897 165217
3.14429 158129
3.1596 150934
3.17492 144116
3.19024 137042
3.20555 130362
3.22087 123779
3.23618 117292
3.2515 111179
3.26682 105243
3.28213 99808.3
3.29745 94520.9
3.31277 89772.9
3.32808 85426.8
3.3434 81498.8
3.35872 78238.1
3.37403 75335.8
3.38935 73114.7
3.40466 71307.5
3.41998 69955.9
3.4353 68985.1
3.45061 68314.4
3.46593 68024.3
3.48125 67870.5
3.49656 67910.3
3.51188 67951.4
3.52719 68020
3.54251 68060.2
3.55783 67982.9
3.57314 67825.4
3.58846 67487.5
3.60378 67097.1
3.61909 66748.6
3.63441 66404.9
3.64973 66252.3
3.66504 66215.7
3.68036 66519.7
3.69567 67112.2
3.71099 68031.1
3.72631 69270.4
3.74162 70705.8
3.75694 72316.9
3.77226 73848.8
3.78757 75192.9
3.80289 76251.4
3.81821 76987.2
3.83352 77337.6
3.84884 77308.3
3.86415 76874.4
3.87947 76060.1
3.89479 75018.5
3.9101 73840.2
3.92542 72632.5
3.94074 71562.8
3.95605 70579.8
3.97137 69941.1
3.98669 69499.5
4.002 69404.6
4.01732 69511.8
4.03263 69907.2
4.04795 70488.2
4.06327 71385.4
4.07858 72523.1
4.0939 74049.2
4.10922 75901.1
4.12453 78079.1
4.13985 80599.3
4.15517 83209.3
4.17048 85944.3
4.1858 88557.7
4.20111 91077.4
4.21643 93424.9
4.23175 95452.5
4.24706 97246.6
4.26238 98642.7
4.2777 99877.4
4.29301 100753
4.30833 101251
4.32365 101340
4.33896 100996
4.35428 100188
4.36959 98810.8
4.38491 96818.7
4.40023 94301
4.41554 91172.6
4.43086 87626.1
4.44618 83818.9
4.46149 79758.8
4.47681 75856.4
4.49213 72099.3
4.50744 68735.3
4.52276 65750.7
4.53807 63154
4.55339 61040.1
4.56871 59260.1
4.58402 57843.3
4.59934 56708.7
4.61466 55868.5
4.62997 55309.2
4.64529 54940.6
4.6606 54807.6
4.67592 54885.1
4.69124 55135.9
4.70655 55551.4
4.72187 56077
4.73719 56716.7
4.7525 57391
4.76782 58115.4
4.78314 58850
4.79845 59516.2
4.81377 60132.4
4.82908 60748
4.8444 61368.6
4.85972 62014.4
4.87503 62658.8
4.89035 63341.3
4.90567 64099.1
4.92098 64985
4.9363 66031.4
4.95162 67270.9
4.96693 68731.7
4.98225 70521
4.99756 72801.4
5.01288 75319.7
5.0282 77897.5
5.04351 80545.2
5.05883 82708.4
5.07415 84401.4
5.08946 85521
5.10478 85920.8
5.1201 85880.3
5.13541 85200.2
5.15073 84376.5
5.16604 83267.2
5.18136 82197.9
5.19668 81301.5
5.21199 80661.1
5.22731 80167.7
5.24263 79755.6
5.25794 79237.2
5.27326 78606.9
5.28858 77872.2
5.30389 77099.6
5.31921 76398
5.33452 75777
5.34984 75265.4
5.36516 74705.1
5.38047 74032.3
5.39579 73060.3
5.41111 71747.3
5.42642 69980.4
5.44174 67890.3
5.45706 65411.1
5.47237 62729
5.48769 59929.8
5.503 57193.4
5.51832 54812.1
5.53364 52786.1
5.54895 51336.8
5.56427 50322.3
5.57959 49668.1
5.5949 49306.8
5.61022 49043.4
5.62553 48925.9
5.64085 48747.2
5.65617 48576.1
5.67148 48402.1
5.6868 48278.8
5.70212 48110.7
5.71743 47959.2
5.73275 47859
5.74807 47800.3
5.76338 47842.3
5.7787 47994.9
5.79401 48275.9
5.80933 48702.6
5.82465 49256.2
5.83996 49953
5.85528 50719.2
5.8706 51583.7
5.88591 52437.1
5.90123 53274.9
5.91655 53987.7
5.93186 54629.3
5.94718 55085.4
5.96249 55355.9
5.97781 55435.6
5.99313 55294.4
6.00844 54935.8
6.02376 54385.2
6.03908 53738.6
6.05439 53017.7
6.06971 52297.2
6.08503 51591.3
6.10034 50947.9
6.11566 50400.4
6.13097 49943
6.14629 49555.5
6.16161 49281.5
6.17692 49121.5
6.19224 49111.7
6.20756 49179.5
6.22287 49360.4
6.23819 49644
6.25351 50031.4
6.26882 50403.2
6.28414 50740.9
6.29945 50974.6
6.31477 51056.1
6.33009 50994.2
6.3454 50809.8
6.36072 50523.6
6.37604 50187.4
6.39135 49853
6.40667 49576.4
6.42199 49365.1
6.4373 49272
6.45262 49299.2
6.46793 49437.9
6.48325 49684.1
6.49857 50007.1
6.51388 50417.4
6.5292 50860.7
6.54452 51364.5
6.55983 51887.9
6.57515 52460.8
6.59046 53062.1
6.60578 53697
6.6211 54317.6
6.63641 54954.2
6.65173 55522.1
6.66705 56044.5
6.68236 56482.6
6.69768 56846.8
6.713 57123.6
6.72831 57285.5
6.74363 57297.6
6.75894 57176.7
6.77426 56953.3
6.78958 56684
6.80489 56367.2
6.82021 55993.4
6.83553 55552
6.85084 55083.8
6.86616 54596.8
6.88148 54116.2
6.89679 53625.8
6.91211 53127.4
6.92742 52644.4
6.94274 52211.5
6.95806 51805.2
6.97337 51411.8
6.98869 51046.4
7.00401 50710.4
7.01932 50399.6
7.03464 50072.5
7.04996 49804.2
7.06527 49562
7.08059 49395.4
7.0959 49239.7
7.11122 49113.6
7.12654 48989
7.14185 48886.5
7.15717 48816.8
7.17249 48792.3
7.1878 48804.2
7.20312 48902.2
7.21844 49014.7
7.23375 49150.9
7.24907 49281.9
7.26438 49460.8
7.2797 49637.3
7.29502 49809
7.31033 49943.1
7.32565 50058.8
7.34097 50127.5
7.35628 50148.1
7.3716 50114.2
7.38692 50020.8
7.40223 49876.1
7.41755 49706.4
7.43286 49492.1
7.44818 49223
7.4635 48953.6
7.47881 48668.5
7.49413 48415.4
7.50945 48158
7.52476 47931.5
7.54008 47691.3
7.55539 47415.3
7.57071 47081.7
7.58603 46708.2
7.60134 46336.1
7.61666 45954.9
7.63198 45584.2
7.64729 45252
7.66261 44945.9
7.67793 44723.6
7.69324 44582.3
7.70856 44549.8
7.72387 44613.7
7.73919 44750.6
7.75451 44948.4
7.76982 45198.2
7.78514 45419.8
7.80046 45627.8
7.81577 45742.5
7.83109 45736
7.84641 45612.1
7.86172 45347.6
7.87704 45005.3
7.89235 44591.3
7.90767 44181.5
7.92299 43793.4
7.9383 43495.9
7.95362 43287.6
7.96894 43125.8
7.98425 43017.2
7.99957 42960
8.01489 42942.3
8.0302 42926.2
8.04552 42889.3
8.06083 42843.5
8.07615 42804.2
8.09147 42757.5
8.10678 42737.1
8.1221 42691.7
8.13742 42661
8.15273 42608.3
8.16805 42598.2
8.18337 42574
8.19868 42575.7
8.214 42559.4
8.22931 42549.1
8.24463 42522.8
8.25995 42460.4
8.27526 42366
8.29058 42215.1
8.3059 42074.3
8.32121 41898.5
8.33653 41714.2
8.35185 41537.4
8.36716 41342
8.38248 41186.4
8.39779 41078.2
8.41311 41019.4
8.42843 41028.6
8.44374 41078.1
8.45906 41137.5
8.47438 41230.8
8.48969 41359.8
8.50501 41511.9
8.52032 41648.8
8.53564 41822
8.55096 42028.8
8.56627 42217.2
8.58159 42398.1
8.59691 42592.2
8.61222 42800.2
8.62754 42993.6
8.64286 43149.3
8.65817 43302.4
8.67349 43418.8
8.6888 43553.6
8.70412 43698.4
8.71944 43924
8.73475 44175.5
8.75007 44490
8.76539 44849.1
8.7807 45271.1
8.79602 45642.4
8.81134 45947.1
8.82665 46118.5
8.84197 46183
8.85728 46128.5
8.8726 45998.5
8.88792 45822.7
8.90323 45686.1
8.91855 45656.2
8.93387 45745.4
8.94918 45984.4
8.9645 46258
8.97982 46533.9
8.99513 46701.9
9.01045 46796.1
9.02576 46711.2
9.04108 46466.4
9.0564 46059.6
9.07171 45510.2
9.08703 44892.4
9.10235 44254.1
9.11766 43669.6
9.13298 43157.7
9.1483 42724.5
9.16361 42376
9.17893 42118.1
9.19424 41887.3
9.20956 41675.9
9.22488 41472.2
9.24019 41280.5
9.25551 41065.3
9.27083 40849.4
9.28614 40610.3
9.30146 40382.2
9.31678 40133.9
9.33209 39894
9.34741 39682.8
9.36272 39483.8
9.37804 39290.4
9.39336 39135.9
9.40867 39010.2
9.42399 38951
9.43931 38940.9
9.45462 38977.9
9.46994 39054.8
9.48525 39174.1
9.50057 39374.1
9.51589 39604.2
9.5312 39798.8
9.54652 39951
9.56184 40078.5
9.57715 40112.4
9.59247 40065.2
9.60779 39942.1
9.6231 39772.9
9.63842 39583.2
9.65373 39387.2
9.66905 39213.8
9.68437 39082.8
9.69968 39015.1
9.715 39002.1
9.73032 39022.6
9.74563 39047.9
9.76095 39057.4
9.77627 39067.1
9.79158 39105.1
9.8069 39170.1
9.82221 39216.3
9.83753 39232.3
9.85285 39255.2
9.86816 39278.2
9.88348 39295.8
9.8988 39319.1
9.91411 39360.3
9.92943 39447.2
9.94475 39568
9.96006 39714.1
9.97538 39851
9.99069 40020.7
10.006 40170.1
10.0213 40346.3
10.0366 40498.5
10.052 40669
10.0673 40843.7
10.0826 40991.3
10.0979 41171.6
10.1132 41343.4
10.1285 41585
10.1439 41831.5
10.1592 42109.8
10.1745 42305
10.1898 42424.1
10.2051 42466
10.2204 42435.6
10.2358 42393.1
10.2511 42335.2
10.2664 42298.4
10.2817 42334.8
10.297 42434.7
10.3123 42619.8
10.3277 42779.1
10.343 42887.7
10.3583 42887.9
10.3736 42795.3
10.3889 42622.9
10.4042 42409.2
10.4196 42156
10.4349 41887.9
10.4502 41596.7
10.4655 41363.8
10.4808 41178.3
10.4961 41049.9
10.5115 40944.9
10.5268 40889.8
10.5421 40889.8
10.5574 40936.1
10.5727 40988.3
10.588 41048.5
10.6033 41089.6
10.6187 41080.9
10.634 41023.3
10.6493 40935.5
10.6646 40774.2
10.6799 40570.8
10.6952 40321
10.7106 40105.3
10.7259 39917.7
10.7412 39766.9
10.7565 39657.9
10.7718 39600.9
10.7871 39574.2
10.8025 39583.2
10.8178 39599.3
10.8331 39595.4
10.8484 39519.3
10.8637 39390
10.879 39222.8
10.8944 39022.2
10.9097 38778.1
10.925 38539.3
10.9403 38313.5
10.9556 38108.7
10.9709 37917.3
10.9863 37758.4
11.0016 37600.8
11.0169 37454.5
11.0322 37302.8
11.0475 37180.1
11.0628 37030.7
11.0782 36865.4
11.0935 36709
11.1088 36563.3
11.1241 36434
11.1394 36329.8
11.1547 36257.3
11.1701 36185
11.1854 36116.7
11.2007 36046.2
11.216 35973.2
11.2313 35940.5
11.2466 35882.2
11.262 35831.4
11.2773 35809.3
11.2926 35804
11.3079 35807.6
11.3232 35796.9
11.3385 35768.8
11.3538 35738.2
11.3692 35690.8
11.3845 35663.5
11.3998 35641.5
11.4151 35621.7
11.4304 35609.9
11.4457 35594
11.4611 35600.2
11.4764 35606.8
11.4917 35652
11.507 35695.2
11.5223 35736.8
11.5376 35757.6
11.553 35787.5
11.5683 35801.1
11.5836 35785.8
11.5989 35741.6
11.6142 35704.6
11.6295 35641.4
11.6449 35560.9
11.6602 35466.2
11.6755 35361.2
11.6908 35255.2
11.7061 35158.1
11.7214 35082.7
11.7368 35060.7
11.7521 35071.7
11.7674 35106.2
11.7827 35121.6
11.798 35128.5
11.8133 35088.3
11.8287 35010
11.844 34952.6
11.8593 34880.3
11.8746 34802.3
11.8899 34756.9
11.9052 34718.8
11.9206 34677.3
11.9359 34647.9
11.9512 34641.6
11.9665 34626.8
11.9818 34635.9
11.9971 34622.3
12.0125 34612.5
12.0278 34590.6
12.0431 34578.9
12.0584 34555.4
12.0737 34501.6
12.089 34435.4
12.1044 34381.9
12.1197 34319.4
12.135 34293.6
12.1503 34276.8
12.1656 34258.4
12.1809 34241.7
12.1962 34244.6
12.2116 34228.5
12.2269 34219.9
12.2422 34211.9
12.2575 34207.9
12.2728 34189.2
12.2881 34200.1
12.3035 34244.7
12.3188 34274.8
12.3341 34256
12.3494 34278.2
12.3647 34321.6
12.38 34372.6
12.3954 34381.6
12.4107 34406.5
12.426 34423.5
12.4413 34437
12.4566 34436.6
12.4719 34454.7
12.4873 34476.8
12.5026 34484.1
12.5179 34463.3
12.5332 34450.1
12.5485 34460.1
12.5638 34479.2
12.5792 34487.5
12.5945 34504
12.6098 34512.5
12.6251 34520.1
12.6404 34533.6
12.6557 34547.2
12.6711 34588.9
12.6864 34603.7
12.7017 34591.5
12.717 34583.4
12.7323 34582.6
12.7476 34570.4
12.763 34570.6
12.7783 34596.9
12.7936 34648.4
12.8089 34721.4
12.8242 34799
12.8395 34862.7
12.8549 34889.6
12.8702 34834.8
12.8855 34725.8
12.9008 34643.5
12.9161 34598.9
12.9314 34542.1
12.9467 34454.8
12.9621 34397.1
12.9774 34346.3
12.9927 34318.5
13.008 34298.7
13.0233 34285.3
13.0386 34274.6
13.054 34280.9
13.0693 34278.8
13.0846 34283.3
13.0999 34304.2
13.1152 34300.6
13.1305 34268.6
13.1459 34250.6
13.1612 34259.4
13.1765 34254.7
13.1918 34243.3
13.2071 34220.3
13.2224 34203.6
13.2378 34185.9
13.2531 34184.5
13.2684 34215.1
13.2837 34198.7
13.299 34199.9
13.3143 34231
13.3297 34252.5
13.345 34271.1
13.3603 34310.5
13.3756 34390.6
13.3909 34514.8
13.4062 34651.2
13.4216 34809.5
13.4369 34974.7
13.4522 35147.8
13.4675 35304.9
13.4828 35427.3
13.4981 35513
13.5135 35579.8
13.5288 35604.1
13.5441 35629
13.5594 35674.4
13.5747 35719.4
13.59 35728.7
13.6054 35700.5
13.6207 35609.8
13.636 35476.6
13.6513 35325.9
13.6666 35130.1
13.6819 34918.2
13.6973 34721
13.7126 34556.9
13.7279 34431.5
13.7432 34320.5
13.7585 34228.5
13.7738 34151.2
13.7891 34083.4
13.8045 34014
13.8198 33954.8
13.8351 33920
13.8504 33892.8
13.8657 33881
13.881 33869.8
13.8964 33893.3
13.9117 33932.5
13.927 33938.4
13.9423 33957.7
13.9576 33995.9
13.9729 33976.9
13.9883 33929.6
14.0036 33863.3
14.0189 33794.2
14.0342 33661
14.0495 33533.9
14.0648 33413
14.0802 33285.3
14.0955 33137.4
14.1108 33034.6
14.1261 32935.3
14.1414 32850.7
14.1567 32780.8
14.1721 32713.2
14.1874 32651.9
14.2027 32603.4
14.218 32556.2
14.2333 32507
14.2486 32473.9
14.264 32474
14.2793 32468.4
14.2946 32441.2
14.3099 32397.1
14.3252 32337.6
14.3405 32269.9
14.3559 32236.9
14.3712 32219.4
14.3865 32216.9
14.4018 32201.7
14.4171 32172.3
14.4324 32145.6
14.4478 32133.1
14.4631 32102.9
14.4784 32100.1
14.4937 32103.3
14.509 32104.9
14.5243 32101.4
14.5397 32081.5
14.555 32079.3
14.5703 32091.3
14.5856 32072.5
14.6009 32052.1
14.6162 32036
14.6315 31996.3
14.6469 31948.2
14.6622 31924
14.6775 31921
14.6928 31905.9
14.7081 31869.8
14.7234 31838.6
14.7388 31797
14.7541 31743.6
14.7694 31693.1
14.7847 31660.3
14.8 31632.3
14.8153 31589
14.8307 31541.6
14.846 31520.4
14.8613 31489
14.8766 31434.6
14.8919 31398.7
14.9072 31377.2
14.9226 31366.3
14.9379 31319.3
14.9532 31266.1
14.9685 31271.5
14.9838 31265.8
14.9991 31261.1
15.0145 31249.8
15.0298 31234.5
15.0451 31223.4
15.0604 31247.3
15.0757 31265
15.091 31256.8
15.1064 31236
15.1217 31243.9
15.137 31249
15.1523 31249.4
15.1676 31258.3
15.1829 31258.6
15.1983 31279.3
15.2136 31309.2
15.2289 31343.2
15.2442 31400.7
15.2595 31433.3
15.2748 31473
15.2902 31499.6
15.3055 31501.6
15.3208 31497.1
15.3361 31526.5
15.3514 31591.9
15.3667 31625.5
15.382 31626.3
15.3974 31633.7
15.4127 31638.2
15.428 31606.6
15.4433 31578.7
15.4586 31548.4
15.4739 31503.5
15.4893 31466.3
15.5046 31424
15.5199 31388
15.5352 31357.6
15.5505 31302
15.5658 31272.2
15.5812 31256.3
15.5965 31264.6
15.6118 31263.6
15.6271 31252.1
15.6424 31213.2
15.6577 31206.9
15.6731 31236
15.6884 31231.8
15.7037 31206.2
15.719 31181.1
15.7343 31151.6
15.7496 31115.2
15.765 31052.7
15.7803 31030.8
15.7956 31017.5
15.8109 31016.1
15.8262 31004.4
15.8415 30946.8
15.8569 30868.3
15.8722 30794.1
15.8875 30740
15.9028 30688
15.9181 30652.5
15.9334 30609.8
15.9488 30579.4
15.9641 30558.5
15.9794 30539
15.9947 30507
16.01 30454.3
16.0253 30429.2
16.0407 30424.3
16.056 30386.7
16.0713 30357.5
16.0866 30338.2
16.1019 30347.5
16.1172 30356.4
16.1326 30336.1
16.1479 30330.5
16.1632 30354.8
16.1785 30381.7
16.1938 30402.6
16.2091 30416.5
16.2244 30399.1
16.2398 30360.4
16.2551 30343.8
16.2704 30352.8
16.2857 30349.4
16.301 30327.5
16.3163 30317.8
16.3317 30307.3
16.347 30308.6
16.3623 30309.2
16.3776 30290.9
16.3929 30254.4
16.4082 30220.6
16.4236 30198.9
16.4389 30183.7
16.4542 30173.2
16.4695 30144.3
16.4848 30123.6
16.5001 30093
16.5155 30077.5
16.5308 30046.5
16.5461 30018
16.5614 30000.1
16.5767 29963
16.592 29905.7
16.6074 29820.6
16.6227 29779.4
16.638 29768.8
16.6533 29776.8
16.6686 29749.9
16.6839 29671.9
16.6993 29619
16.7146 29580
16.7299 29549.2
16.7452 29560.6
16.7605 29548
16.7758 29510.9
16.7912 29509.9
16.8065 29486.9
16.8218 29473.1
16.8371 29464.4
16.8524 29442
16.8677 29448.7
16.8831 29431.6
16.8984 29395.9
16.9137 29341.3
16.929 29319.9
16.9443 29324.3
16.9596 29331.6
16.9749 29319
16.9903 29286.8
17.0056 29248.8
17.0209 29237.6
17.0362 29212.1
17.0515 29171.8
17.0668 29147.1
17.0822 29143.8
17.0975 29134.3
17.1128 29100
17.1281 29051.9
17.1434 29033.6
17.1587 29021.9
17.1741 29002.1
17.1894 28992.3
17.2047 28968.2
17.22 28923.6
17.2353 28916.1
17.2506 28936.7
17.266 28910
17.2813 28876.1
17.2966 28850.1
17.3119 28812.6
17.3272 28775.8
17.3425 28778.5
17.3579 28788.1
17.3732 28760
17.3885 28759.8
17.4038 28770.6
17.4191 28770.6
17.4344 28776.3
17.4498 28778.2
17.4651 28779.7
17.4804 28771.3
17.4957 28752.3
17.511 28707.5
17.5263 28694.7
17.5417 28701.9
17.557 28712.1
17.5723 28738.6
17.5876 28725.5
17.6029 28731
17.6182 28758.1
17.6336 28761.1
17.6489 28739.2
17.6642 28715.3
17.6795 28706.6
17.6948 28720.3
17.7101 28718.6
17.7255 28733.5
17.7408 28747.6
17.7561 28716.3
17.7714 28714.5
17.7867 28733.2
17.802 28726
17.8173 28700.5
17.8327 28690.6
17.848 28676
17.8633 28673.1
17.8786 28666
17.8939 28640.1
17.9092 28651.8
17.9246 28672.1
17.9399 28668.1
17.9552 28647.2
17.9705 28615.9
17.9858 28585.5
18.0011 28590.1
18.0165 28597.9
18.0318 28603.5
18.0471 28605.1
18.0624 28609.1
18.0777 28564.7
18.093 28529.9
18.1084 28531
18.1237 28523.2
18.139 28505.3
18.1543 28490.1
18.1696 28467.8
18.1849 28421.3
18.2003 28406.2
18.2156 28454.7
18.2309 28504.1
18.2462 28540.7
18.2615 28536
18.2768 28516.5
18.2922 28510
18.3075 28532.2
18.3228 28557.6
18.3381 28569.2
18.3534 28550.8
18.3687 28561.5
18.3841 28598.3
18.3994 28630.2
18.4147 28638.2
18.43 28616.9
18.4453 28615.3
18.4606 28599.5
18.476 28572
18.4913 28540.4
18.5066 28494.6
18.5219 28459.4
18.5372 28436.2
18.5525 28416.5
18.5679 28371.6
18.5832 28333.1
18.5985 28334.9
18.6138 28334.4
18.6291 28326.8
18.6444 28278.8
18.6597 28239.1
18.6751 28210
18.6904 28213
18.7057 28226.7
18.721 28214.5
18.7363 28194.1
18.7516 28177.7
18.767 28172
18.7823 28132.2
18.7976 28079.7
18.8129 28061.3
18.8282 28049.8
18.8435 28013.1
18.8589 27989.3
18.8742 27975.5
18.8895 27948.8
18.9048 27936.4
18.9201 27888.1
18.9354 27882.6
18.9508 27899.3
18.9661 27867.7
18.9814 27824.4
18.9967 27785.7
19.012 27723.1
19.0273 27733.4
19.0427 27767.5
19.058 27714.2
19.0733 27671.8
19.0886 27650.2
19.1039 27654.2
19.1192 27649.3
19.1346 27640
19.1499 27620.7
19.1652 27622.3
19.1805 27602.9
19.1958 27604.6
19.2111 27600.2
19.2265 27605.8
19.2418 27594.1
19.2571 27570
19.2724 27543
19.2877 27517
19.303 27502.8
19.3184 27457.1
19.3337 27421.4
19.349 27437.7
19.3643 27427.9
19.3796 27384.2
19.3949 27370.8
19.4102 27386
19.4256 27367.6
19.4409 27326.6
19.4562 27281
19.4715 27241.8
19.4868 27247.6
19.5021 27244.2
19.5175 27239
19.5328 27245.1
19.5481 27205.8
19.5634 27158.6
19.5787 27146.8
19.594 27109.8
19.6094 27104.1
19.6247 27096.2
19.64 27092.9
19.6553 27129.6
19.6706 27101.2
19.6859 27091.4
19.7013 27096.4
19.7166 27080.1
19.7319 27065.4
19.7472 27019.4
19.7625 26989
19.7778 26996.2
19.7932 27007.3
19.8085 26987.9
19.8238 26966.4
19.8391 26931.7
19.8544 26922.4
19.8697 26927.2
19.8851 26918.6
19.9004 26925.5
19.9157 26923
19.931 26895.4
19.9463 26934.8
19.9616 26982.7
19.977 26959.4
19.9923 26906.9
20.0076 26904.9
20.0229 26859.8
20.0382 26823.8
20.0535 26817
20.0689 26828.1
20.0842 26842.3
20.0995 26843.7
20.1148 26811.5
20.1301 26790.4
20.1454 26779
20.1608 26762.6
20.1761 26744.2
20.1914 26725.3
20.2067 26694.6
20.222 26649.6
20.2373 26668.2
20.2526 26704.3
20.268 26738.3
20.2833 26734
20.2986 26726.5
20.3139 26715.1
20.3292 26694.5
20.3445 26689.7
20.3599 26681
20.3752 26646.1
20.3905 26651.9
20.4058 26678.3
20.4211 26693.5
20.4364 26745.9
20.4518 26753.2
20.4671 26744.3
20.4824 26743.7
20.4977 26728.6
20.513 26708.2
20.5283 26707.4
20.5437 26712.4
20.559 26685.9
20.5743 26650.8
20.5896 26630.3
20.6049 26637
20.6202 26644.6
20.6356 26623.8
20.6509 26646.9
20.6662 26631
20.6815 26613.3
20.6968 26632.4
20.7121 26617.6
20.7275 26580.4
20.7428 26582.9
20.7581 26559.7
20.7734 26540.5
20.7887 26529.5
20.804 26560.2
20.8194 26597.6
20.8347 26560.8
20.85 26556.3
20.8653 26538.4
20.8806 26519.8
20.8959 26523.8
20.9113 26512.7
20.9266 26528.9
20.9419 26510.9
20.9572 26494.4
20.9725 26514
20.9878 26488.4
21.0031 26461.9
21.0185 26524.5
21.0338 26513.7
21.0491 26494.5
21.0644 26461.3
21.0797 26442
21.095 26502.6
21.1104 26533.2
21.1257 26527.7
21.141 26492
21.1563 26469
21.1716 26488.9
21.1869 26476.8
21.2023 26469.1
21.2176 26474.4
21.2329 26440.5
21.2482 26450.9
21.2635 26454.6
21.2788 26431.1
21.2942 26452.2
21.3095 26450
21.3248 26447
21.3401 26428.3
21.3554 26435.3
21.3707 26408.2
21.3861 26428.3
21.4014 26389.9
21.4167 26437
21.432 26484.9
21.4473 26461.7
21.4626 26440.4
21.478 26409.6
21.4933 26395.9
21.5086 26418.5
21.5239 26454.3
21.5392 26459.2
21.5545 26436.1
21.5699 26458.8
21.5852 26462.3
21.6005 26450.9
21.6158 26404.9
21.6311 26383.5
21.6464 26370.9
21.6618 26373.8
21.6771 26387.7
21.6924 26413.2
21.7077 26417.2
21.723 26459.5
21.7383 26488.1
21.7537 26490.8
21.769 26451.6
21.7843 26432.9
21.7996 26385.7
21.8149 26403.1
21.8302 26419.3
21.8455 26427.6
21.8609 26405.2
21.8762 26396.3
21.8915 26412.1
21.9068 26418.7
21.9221 26452.4
21.9374 26483.6
21.9528 26489.8
21.9681 26455.9
21.9834 26466.4
21.9987 26484.6
22.014 26492.5
22.0293 26539.2
22.0447 26570.9
22.06 26561.8
22.0753 26552
22.0906 26558.2
22.1059 26594.3
22.1212 26606.4
22.1366 26608.5
22.1519 26611.1
22.1672 26605.1
22.1825 26582.4
22.1978 26586.4
22.2131 26579.6
22.2285 26595.6
22.2438 26588.7
22.2591 26613.5
22.2744 26589.1
22.2897 26521.7
22.305 26548.7
22.3204 26595.5
22.3357 26614.4
22.351 26634
22.3663 26650.9
22.3816 26660.1
22.3969 26707.1
22.4123 26730.2
22.4276 26718.6
22.4429 26690.5
22.4582 26659.4
22.4735 26676.3
22.4888 26706.5
22.5042 26726.8
22.5195 26743.5
22.5348 26722.8
22.5501 26760.7
22.5654 26740.5
22.5807 26710.9
22.596 26707.9
22.6114 26730.5
22.6267 26663
22.642 26684.5
22.6573 26748.4
22.6726 26743.9
22.6879 26782.8
22.7033 26784.6
22.7186 26753.6
22.7339 26732.7
22.7492 26723.4
22.7645 26727
22.7798 26752.6
22.7952 26786.7
22.8105 26814.5
22.8258 26796
22.8411 26743.6
22.8564 26786.2
22.8717 26836.6
22.8871 26797.9
22.9024 26807
22.9177 26790.7
22.933 26824.6
22.9483 26865.1
22.9636 26895
22.979 26884.5
22.9943 26942.3
