# xPDFsuite Configuration #
[PDF]
wavelength = 0.1
dataformat = QA
inputfile = B3_Bronze-3nm_ss_31.chi
backgroundfile = B3_Li-bkg_ss.chi
mode = xray
bgscale = 0.98705
composition = Ti O2
outputtype = iq
qmaxinst = 23.0
qmin = 0.1
qmax = 23.0
rmax = 30.0
rmin = 0.0
rstep = 0.01
rpoly = 0.9

[Misc]
inputdir = E:/Beamtime/PETRA-III_September-2019/BeamData/processed/Run1/B3/chi/chi_w_sigmas/chi_scaled
savedir = E:/Beamtime/PETRA-III_September-2019/BeamData/processed/Run1/B3
backgroundfilefull = E:/Beamtime/PETRA-III_September-2019/BeamData/processed/Run1/B3/chi/chi_w_sigmas/chi_scaled/B3_Li-bkg_ss.chi

#### start data
#S 1
#L Q($\AA^{-1}$)  intensity(a.u.)
0.111649 0
0.126965 0
0.142282 0
0.157598 0
0.172914 0
0.188231 0
0.203547 0
0.218864 0
0.23418 0
0.249496 0
0.264813 0
0.280129 0
0.295445 0
0.310762 0
0.326078 0
0.341394 0
0.356711 0
0.372027 0
0.387343 0
0.40266 0
0.417976 0
0.433292 0
0.448609 0
0.463925 0
0.479241 0
0.494558 0
0.509874 0
0.525191 0
0.540507 0
0.555823 0
0.57114 0
0.586456 0
0.601772 0
0.617089 0
0.632405 0
0.647721 0
0.663038 0
0.678354 0
0.69367 0
0.708987 0
0.724303 0
0.739619 0
0.754936 0
0.770252 0
0.785568 0
0.800885 0
0.816201 0
0.831518 0
0.846834 0
0.86215 1.38584
0.877467 99498.2
0.892783 99645.5
0.908099 99556.8
0.923416 100290
0.938732 101306
0.954048 102218
0.969365 102721
0.984681 102364
0.999997 100829
1.01531 98214.6
1.03063 93771.8
1.04595 88308.7
1.06126 81689.4
1.07658 73934.3
1.0919 66193.9
1.10721 57519.4
1.12253 49565.6
1.13784 41587.3
1.15316 34318.6
1.16848 28078.5
1.18379 22255
1.19911 17578.5
1.21443 13358
1.22974 10071.3
1.24506 7422.59
1.26038 5382.29
1.27569 4091.07
1.29101 3277.99
1.30632 3066.54
1.32164 3436.61
1.33696 4314.21
1.35227 5596.47
1.36759 7236.05
1.38291 9015.25
1.39822 11171.7
1.41354 13115
1.42886 14890.6
1.44417 16493.6
1.45949 17962.1
1.4748 19327.2
1.49012 20860.7
1.50544 22843.5
1.52075 25465.7
1.53607 28989.8
1.55139 33808.8
1.5667 39631.1
1.58202 47457.5
1.59733 56307
1.61265 66575.5
1.62797 77843.8
1.64328 89100.5
1.6586 100733
1.67392 110940
1.68923 120139
1.70455 127467
1.71987 132899
1.73518 136689
1.7505 138874
1.76581 140441
1.78113 140851
1.79645 140850
1.81176 140141
1.82708 138945
1.8424 137008
1.85771 134802
1.87303 132037
1.88835 128876
1.90366 125634
1.91898 122364
1.93429 119352
1.94961 116777
1.96493 114850
1.98024 113614
1.99556 112646
2.01088 111806
2.02619 110313
2.04151 108129
2.05683 104943
2.07214 101060
2.08746 96714.6
2.10277 91939.3
2.11809 87305.9
2.13341 82595.7
2.14872 78374.9
2.16404 74643.6
2.17936 71452.9
2.19467 68923.6
2.20999 66814.4
2.22531 65377.9
2.24062 64167.9
2.25594 63155.7
2.27125 62195.7
2.28657 61248.2
2.30189 60356.4
2.3172 59343.6
2.33252 58292.5
2.34784 57138.1
2.36315 56093.5
2.37847 55238.1
2.39379 54348.8
2.4091 53949.4
2.42442 53547.6
2.43973 53569.3
2.45505 53678.4
2.47037 53864.7
2.48568 54194.1
2.501 54483
2.51632 54810.8
2.53163 54932.9
2.54695 54964.9
2.56226 55009.7
2.57758 55044.3
2.5929 55100.1
2.60821 55199.7
2.62353 55208.1
2.63885 55186.8
2.65416 55145.2
2.66948 55178.8
2.6848 55413.9
2.70011 55839.4
2.71543 56705.9
2.73074 57773.7
2.74606 59291.2
2.76138 61243.7
2.77669 63689.4
2.79201 66705.9
2.80733 70135.4
2.82264 74363.2
2.83796 79375.5
2.85328 85317.1
2.86859 92464.4
2.88391 100481
2.89922 109797
2.91454 119702
2.92986 129997
2.94517 140307
2.96049 149899
2.97581 158789
2.99112 165875
3.00644 171277
3.02176 174308
3.03707 175102
3.05239 173785
3.0677 170600
3.08302 165967
3.09834 160310
3.11365 154185
3.12897 147849
3.14429 141725
3.1596 135872
3.17492 130805
3.19024 126020
3.20555 121877
3.22087 117988
3.23618 114168
3.2515 110420
3.26682 106482
3.28213 102499
3.29745 98251.4
3.31277 94064.1
3.32808 89921.5
3.3434 85900.1
3.35872 82406.6
3.37403 79174
3.38935 76645.9
3.40466 74543.1
3.41998 72909.5
3.4353 71680
3.45061 70804.8
3.46593 70396.6
3.48125 70195.3
3.49656 70183.1
3.51188 70207.9
3.52719 70403.7
3.54251 70721.4
3.55783 71017.1
3.57314 71251.6
3.58846 71337.2
3.60378 71337.2
3.61909 71196.9
3.63441 70925
3.64973 70695.3
3.66504 70399.2
3.68036 70276.7
3.69567 70370.4
3.71099 70751.7
3.72631 71514.8
3.74162 72617.2
3.75694 74149.5
3.77226 75941.4
3.78757 77897.8
3.80289 79933.4
3.81821 81896
3.83352 83616.9
3.84884 85077.8
3.86415 86093.6
3.87947 86569.2
3.89479 86538.5
3.9101 85990.8
3.92542 85064.8
3.94074 83890.9
3.95605 82559.9
3.97137 81309.3
3.98669 80088.9
4.002 79131.7
4.01732 78425.8
4.03263 78002.8
4.04795 77891.6
4.06327 78157.7
4.07858 78726.7
4.0939 79606
4.10922 80732.5
4.12453 82018.5
4.13985 83427.2
4.15517 84789.1
4.17048 86017.7
4.1858 86999.8
4.20111 87790.3
4.21643 88407.3
4.23175 88761.4
4.24706 88908.7
4.26238 88835.7
4.2777 88748.2
4.29301 88631.6
4.30833 88554.5
4.32365 88585.2
4.33896 88731.1
4.35428 89030.8
4.36959 89230.3
4.38491 89355.9
4.40023 89181.3
4.41554 88642.3
4.43086 87635.8
4.44618 86107.4
4.46149 84039.8
4.47681 81593.4
4.49213 78798
4.50744 75837.4
4.52276 72832.3
4.53807 69873.5
4.55339 67188
4.56871 64691.2
4.58402 62550
4.59934 60643.2
4.61466 59070.1
4.62997 57766.3
4.64529 56684.9
4.6606 55907.3
4.67592 55318.7
4.69124 54956.9
4.70655 54834.2
4.72187 54945.7
4.73719 55241.6
4.7525 55721.6
4.76782 56343.5
4.78314 57145
4.79845 58009.9
4.81377 59021.1
4.82908 60083.1
4.8444 61181.8
4.85972 62287.4
4.87503 63385.8
4.89035 64455.7
4.90567 65520.5
4.92098 66592
4.9363 67730.4
4.95162 69007.2
4.96693 70458.7
4.98225 72214
4.99756 74424.8
5.01288 76882.5
5.0282 79349.6
5.04351 81903.5
5.05883 83974.3
5.07415 85630.3
5.08946 86624.9
5.10478 86838
5.1201 86514.9
5.13541 85496
5.15073 84226.4
5.16604 82618.3
5.18136 80987.1
5.19668 79503.8
5.21199 78282.8
5.22731 77311.6
5.24263 76600.3
5.25794 75968.9
5.27326 75480.7
5.28858 75052.1
5.30389 74772.3
5.31921 74710.7
5.33452 74844.8
5.34984 75146.9
5.36516 75430.4
5.38047 75509.8
5.39579 75185.1
5.41111 74326.8
5.42642 72914.8
5.44174 70961.8
5.45706 68460.1
5.47237 65582.6
5.48769 62490.8
5.503 59468.8
5.51832 56795.3
5.53364 54438.5
5.54895 52627.4
5.56427 51238.1
5.57959 50242.4
5.5949 49561
5.61022 49062
5.62553 48754.8
5.64085 48420.6
5.65617 48174.8
5.67148 47960.9
5.6868 47819.8
5.70212 47666.6
5.71743 47556.2
5.73275 47513.1
5.74807 47495.4
5.76338 47577.1
5.7787 47762.3
5.79401 48052.6
5.80933 48483.6
5.82465 48978.1
5.83996 49589.4
5.85528 50239.6
5.8706 50956.5
5.88591 51683.8
5.90123 52408.7
5.91655 53114.6
5.93186 53784.1
5.94718 54366.8
5.96249 54767.3
5.97781 55056.7
5.99313 55165.5
6.00844 55151.8
6.02376 54978.5
6.03908 54699.9
6.05439 54314.7
6.06971 53878.7
6.08503 53446.3
6.10034 53010.7
6.11566 52642
6.13097 52300.1
6.14629 52020.3
6.16161 51782.4
6.17692 51651.8
6.19224 51631.1
6.20756 51686.8
6.22287 51858.2
6.23819 52113.7
6.25351 52392.5
6.26882 52657.6
6.28414 52850.2
6.29945 52919.6
6.31477 52814
6.33009 52559.8
6.3454 52185.3
6.36072 51716.2
6.37604 51190.3
6.39135 50663.4
6.40667 50220.8
6.42199 49866.2
6.4373 49607.1
6.45262 49435.1
6.46793 49403.8
6.48325 49427.1
6.49857 49505.2
6.51388 49617.7
6.5292 49753.8
6.54452 49894.1
6.55983 50030
6.57515 50209.5
6.59046 50401.1
6.60578 50642.1
6.6211 50928.8
6.63641 51264.9
6.65173 51611.6
6.66705 51964.5
6.68236 52362.2
6.69768 52757.6
6.713 53164
6.72831 53533.8
6.74363 53866.7
6.75894 54149.3
6.77426 54403.3
6.78958 54646.1
6.80489 54835.7
6.82021 54965.5
6.83553 55015.3
6.85084 54965.5
6.86616 54819.5
6.88148 54605.2
6.89679 54334.6
6.91211 53992
6.92742 53600.5
6.94274 53188.9
6.95806 52753.7
6.97337 52325.6
6.98869 51927.5
7.00401 51554.1
7.01932 51238.5
7.03464 50908
7.04996 50607.1
7.06527 50336.5
7.08059 50129.7
7.0959 49979.8
7.11122 49867.3
7.12654 49780.6
7.14185 49688.2
7.15717 49627.9
7.17249 49573.6
7.1878 49520.3
7.20312 49451.5
7.21844 49402.5
7.23375 49353.6
7.24907 49301.1
7.26438 49259.8
7.2797 49207.9
7.29502 49156.3
7.31033 49074.2
7.32565 48989.7
7.34097 48874.7
7.35628 48788.7
7.3716 48679.4
7.38692 48586.7
7.40223 48484.9
7.41755 48440.2
7.43286 48395.2
7.44818 48337.8
7.4635 48291.5
7.47881 48264
7.49413 48279.6
7.50945 48276.8
7.52476 48244.4
7.54008 48131.7
7.55539 47967.2
7.57071 47740.4
7.58603 47447.4
7.60134 47113.7
7.61666 46746.2
7.63198 46378.9
7.64729 46026.6
7.66261 45690
7.67793 45451.1
7.69324 45318.4
7.70856 45339
7.72387 45455.6
7.73919 45686.8
7.75451 45972.3
7.76982 46329.6
7.78514 46671.2
7.80046 46955.4
7.81577 47145.2
7.83109 47176.3
7.84641 47070.4
7.86172 46802.6
7.87704 46438.9
7.89235 45960.1
7.90767 45465
7.92299 44973.7
7.9383 44518
7.95362 44107.7
7.96894 43782.4
7.98425 43515.1
7.99957 43277.9
8.01489 43081.6
8.0302 42930.4
8.04552 42791.3
8.06083 42696.4
8.07615 42625.5
8.09147 42579.4
8.10678 42570
8.1221 42566.5
8.13742 42595.2
8.15273 42644.3
8.16805 42755.3
8.18337 42853.9
8.19868 42999.8
8.214 43125.1
8.22931 43271.9
8.24463 43386.1
8.25995 43435.2
8.27526 43426.8
8.29058 43350.3
8.3059 43269.9
8.32121 43151.2
8.33653 43012.5
8.35185 42850.4
8.36716 42665.9
8.38248 42518
8.39779 42398.9
8.41311 42283.2
8.42843 42185.3
8.44374 42099.6
8.45906 42033.2
8.47438 41968.7
8.48969 41936.5
8.50501 41949.1
8.52032 41956.1
8.53564 41954.7
8.55096 41970.2
8.56627 42002.9
8.58159 42067.5
8.59691 42138.6
8.61222 42258.2
8.62754 42384.7
8.64286 42539.8
8.65817 42689.5
8.67349 42854.4
8.6888 43034.3
8.70412 43241.7
8.71944 43518.2
8.73475 43870.8
8.75007 44315
8.76539 44840.9
8.7807 45423.5
8.79602 45965.3
8.81134 46436.7
8.82665 46754.6
8.84197 46974.2
8.85728 47025.2
8.8726 46969.2
8.88792 46829.7
8.90323 46697.7
8.91855 46640.8
8.93387 46697.8
8.94918 46856.9
8.9645 47050.3
8.97982 47229.9
8.99513 47317
9.01045 47301.2
9.02576 47105.4
9.04108 46715.3
9.0564 46192.5
9.07171 45537.4
9.08703 44868.6
9.10235 44187.9
9.11766 43517
9.13298 42894.3
9.1483 42325.9
9.16361 41865
9.17893 41515.7
9.19424 41222.1
9.20956 40969.3
9.22488 40739.4
9.24019 40522.2
9.25551 40330.5
9.27083 40167.5
9.28614 40010.4
9.30146 39862.4
9.31678 39755.3
9.33209 39634.5
9.34741 39546.4
9.36272 39470.8
9.37804 39385.3
9.39336 39323.3
9.40867 39273.8
9.42399 39223.5
9.43931 39196.8
9.45462 39218.9
9.46994 39264.5
9.48525 39312.3
9.50057 39415.2
9.51589 39547.7
9.5312 39678.4
9.54652 39778.8
9.56184 39862.3
9.57715 39853.6
9.59247 39747.2
9.60779 39571.3
9.6231 39368.8
9.63842 39146.1
9.65373 38926.2
9.66905 38731.3
9.68437 38575.8
9.69968 38470.6
9.715 38427
9.73032 38429.5
9.74563 38468.3
9.76095 38528.3
9.77627 38597.5
9.79158 38657.4
9.8069 38737.5
9.82221 38822.6
9.83753 38890.3
9.85285 38929.7
9.86816 38976.2
9.88348 39015.9
9.8988 39061.6
9.91411 39093.8
9.92943 39185
9.94475 39296.9
9.96006 39417.7
9.97538 39521.7
9.99069 39675.8
10.006 39814.4
10.0213 39990.4
10.0366 40162.5
10.052 40366.7
10.0673 40543.1
10.0826 40738.2
10.0979 40950.4
10.1132 41173.3
10.1285 41456.8
10.1439 41757.2
10.1592 42074.2
10.1745 42318.8
10.1898 42462.9
10.2051 42517.2
10.2204 42524.1
10.2358 42515
10.2511 42525.5
10.2664 42529.5
10.2817 42605.7
10.297 42736.2
10.3123 42942.1
10.3277 43128.8
10.343 43275.6
10.3583 43318.1
10.3736 43273.4
10.3889 43129.5
10.4042 42928.8
10.4196 42661.7
10.4349 42366
10.4502 42045.3
10.4655 41799.7
10.4808 41614.7
10.4961 41481.8
10.5115 41364.9
10.5268 41281
10.5421 41267.8
10.5574 41284.2
10.5727 41328.2
10.588 41378.9
10.6033 41426
10.6187 41443.2
10.634 41415.3
10.6493 41319.2
10.6646 41167
10.6799 40977.6
10.6952 40777
10.7106 40592.3
10.7259 40427.4
10.7412 40295.5
10.7565 40232.4
10.7718 40210
10.7871 40201.9
10.8025 40212.6
10.8178 40232.7
10.8331 40227.9
10.8484 40177.5
10.8637 40062.9
10.879 39907.6
10.8944 39698.9
10.9097 39434.6
10.925 39162.9
10.9403 38886.2
10.9556 38628.5
10.9709 38404
10.9863 38199.4
11.0016 38006
11.0169 37833.6
11.0322 37685
11.0475 37536.5
11.0628 37371.7
11.0782 37192
11.0935 37003.9
11.1088 36811.3
11.1241 36630.6
11.1394 36485.4
11.1547 36375.1
11.1701 36261.7
11.1854 36161.3
11.2007 36078.7
11.216 35995.5
11.2313 35915.9
11.2466 35810.3
11.262 35712.8
11.2773 35635.2
11.2926 35597.1
11.3079 35551.7
11.3232 35507.6
11.3385 35472.9
11.3538 35420.2
11.3692 35369
11.3845 35341.8
11.3998 35333.3
11.4151 35314.8
11.4304 35299.3
11.4457 35273.2
11.4611 35272.9
11.4764 35303.8
11.4917 35357.5
11.507 35404.1
11.5223 35476.1
11.5376 35531.5
11.553 35593.2
11.5683 35635.7
11.5836 35639.6
11.5989 35633.7
11.6142 35602.7
11.6295 35558.9
11.6449 35493.1
11.6602 35422
11.6755 35342.4
11.6908 35267.3
11.7061 35232.4
11.7214 35210.5
11.7368 35218.3
11.7521 35224.9
11.7674 35263.8
11.7827 35307.2
11.798 35348.7
11.8133 35359.5
11.8287 35335.8
11.844 35310.8
11.8593 35271.9
11.8746 35205.8
11.8899 35167.3
11.9052 35125.8
11.9206 35093.1
11.9359 35067.2
11.9512 35075.6
11.9665 35069.9
11.9818 35084.9
11.9971 35081.3
12.0125 35071
12.0278 35045.4
12.0431 35038.2
12.0584 35024.5
12.0737 35008.9
12.089 34938.7
12.1044 34863.8
12.1197 34821.8
12.135 34827.5
12.1503 34811.9
12.1656 34768.5
12.1809 34728.7
12.1962 34714.6
12.2116 34700.9
12.2269 34670.5
12.2422 34662
12.2575 34669.6
12.2728 34641.4
12.2881 34608.8
12.3035 34600
12.3188 34627.8
12.3341 34623.8
12.3494 34602.5
12.3647 34574.6
12.38 34554.9
12.3954 34533.6
12.4107 34523.8
12.426 34522.9
12.4413 34516.4
12.4566 34513.6
12.4719 34508.3
12.4873 34473
12.5026 34431.3
12.5179 34391.7
12.5332 34360.5
12.5485 34358.2
12.5638 34384.6
12.5792 34417.5
12.5945 34449.5
12.6098 34457.7
12.6251 34477.2
12.6404 34497
12.6557 34500.2
12.6711 34507.8
12.6864 34481.8
12.7017 34468.5
12.717 34472.9
12.7323 34480.5
12.7476 34489.1
12.763 34515.9
12.7783 34568.8
12.7936 34615.9
12.8089 34681.8
12.8242 34737.6
12.8395 34782.1
12.8549 34832.4
12.8702 34824.8
12.8855 34760.5
12.9008 34670.6
12.9161 34571.5
12.9314 34482.8
12.9467 34391.7
12.9621 34337.1
12.9774 34268.6
12.9927 34215.7
13.008 34201.5
13.0233 34190.1
13.0386 34172.7
13.054 34169.5
13.0693 34162.7
13.0846 34148.4
13.0999 34159.3
13.1152 34174.9
13.1305 34203.9
13.1459 34202.2
13.1612 34205.7
13.1765 34188.8
13.1918 34188.4
13.2071 34188.4
13.2224 34193.9
13.2378 34206.9
13.2531 34201.1
13.2684 34228.3
13.2837 34228.9
13.299 34223.9
13.3143 34234.7
13.3297 34268.5
13.345 34309.9
13.3603 34374.5
13.3756 34501.9
13.3909 34661.6
13.4062 34826
13.4216 35009.1
13.4369 35205
13.4522 35369
13.4675 35534.7
13.4828 35676.9
13.4981 35777.8
13.5135 35844.1
13.5288 35887.2
13.5441 35917.4
13.5594 35976.9
13.5747 36003.9
13.59 36016.2
13.6054 35980.6
13.6207 35901.5
13.636 35773.3
13.6513 35588.5
13.6666 35384.1
13.6819 35193.5
13.6973 35001.4
13.7126 34814.5
13.7279 34693.2
13.7432 34594.1
13.7585 34514
13.7738 34422.2
13.7891 34338.8
13.8045 34259.8
13.8198 34198.2
13.8351 34168.8
13.8504 34138.3
13.8657 34098.6
13.881 34090.3
13.8964 34102
13.9117 34133.2
13.927 34160.1
13.9423 34188.8
13.9576 34209.3
13.9729 34186.6
13.9883 34137.4
14.0036 34067.5
14.0189 33983.6
14.0342 33860.2
14.0495 33743.4
14.0648 33629
14.0802 33524
14.0955 33394.5
14.1108 33297
14.1261 33176.1
14.1414 33075.6
14.1567 32990.7
14.1721 32908.9
14.1874 32855.2
14.2027 32811.4
14.218 32767.4
14.2333 32743.4
14.2486 32706.3
14.264 32685.5
14.2793 32676
14.2946 32651.7
14.3099 32603.2
14.3252 32552.9
14.3405 32535.5
14.3559 32521.4
14.3712 32507.2
14.3865 32505.8
14.4018 32494.9
14.4171 32472.2
14.4324 32441.6
14.4478 32403.5
14.4631 32339.9
14.4784 32306.4
14.4937 32318.2
14.509 32330.7
14.5243 32352.9
14.5397 32363.7
14.555 32363.1
14.5703 32379.9
14.5856 32359.8
14.6009 32331.1
14.6162 32300.2
14.6315 32264.7
14.6469 32229.7
14.6622 32197.1
14.6775 32161.3
14.6928 32119.1
14.7081 32057.6
14.7234 31999
14.7388 31943.7
14.7541 31907.5
14.7694 31872
14.7847 31841.5
14.8 31809.7
14.8153 31758.4
14.8307 31713.5
14.846 31686.4
14.8613 31658.1
14.8766 31615.1
14.8919 31573.1
14.9072 31538.7
14.9226 31521.2
14.9379 31480.2
14.9532 31447.8
14.9685 31460.2
14.9838 31475.7
14.9991 31460.6
15.0145 31438.3
15.0298 31425.3
15.0451 31401.1
15.0604 31411
15.0757 31417.9
15.091 31429.6
15.1064 31441.2
15.1217 31424.6
15.137 31403.1
15.1523 31428.1
15.1676 31459.9
15.1829 31474.2
15.1983 31475.5
15.2136 31481
15.2289 31509.9
15.2442 31539.6
15.2595 31550.3
15.2748 31580
15.2902 31635.8
15.3055 31671.2
15.3208 31714.2
15.3361 31756.4
15.3514 31803.3
15.3667 31830.3
15.382 31829.1
15.3974 31835.3
15.4127 31824.6
15.428 31786.7
15.4433 31771.7
15.4586 31755.8
15.4739 31715.8
15.4893 31659.6
15.5046 31609.4
15.5199 31579
15.5352 31549.5
15.5505 31501.4
15.5658 31483
15.5812 31471.2
15.5965 31485.7
15.6118 31492.1
15.6271 31494.9
15.6424 31463.8
15.6577 31419.9
15.6731 31373.8
15.6884 31335.5
15.7037 31337.3
15.719 31315.5
15.7343 31283
15.7496 31259.4
15.765 31255.6
15.7803 31262
15.7956 31247.4
15.8109 31224.1
15.8262 31190.5
15.8415 31139.4
15.8569 31076.3
15.8722 31029.6
15.8875 30977.3
15.9028 30915.9
15.9181 30867
15.9334 30815.1
15.9488 30755.5
15.9641 30715.4
15.9794 30718.4
15.9947 30725.9
16.01 30671.8
16.0253 30643.7
16.0407 30631
16.056 30615.9
16.0713 30589.8
16.0866 30555.1
16.1019 30542.7
16.1172 30536.2
16.1326 30508
16.1479 30479
16.1632 30467
16.1785 30485.1
16.1938 30502.6
16.2091 30527.9
16.2244 30544.3
16.2398 30527.4
16.2551 30532.8
16.2704 30557
16.2857 30542.3
16.301 30517
16.3163 30480.1
16.3317 30463.1
16.347 30496.4
16.3623 30504
16.3776 30491.1
16.3929 30467.6
16.4082 30448.6
16.4236 30426.1
16.4389 30377.8
16.4542 30337.4
16.4695 30305.8
16.4848 30291.8
16.5001 30296.5
16.5155 30293.1
16.5308 30263.2
16.5461 30207.1
16.5614 30155.9
16.5767 30108.6
16.592 30075.3
16.6074 30029.4
16.6227 30004.1
16.638 29992.2
16.6533 30002.3
16.6686 30001
16.6839 29939
16.6993 29886.4
16.7146 29839
16.7299 29810.8
16.7452 29816.1
16.7605 29796.8
16.7758 29761.1
16.7912 29763.6
16.8065 29771.3
16.8218 29741.4
16.8371 29712.9
16.8524 29685.9
16.8677 29668.7
16.8831 29661.5
16.8984 29646.5
16.9137 29596.8
16.929 29559.8
16.9443 29566
16.9596 29590.8
16.9749 29638.1
16.9903 29645.5
17.0056 29595.3
17.0209 29532.9
17.0362 29500.3
17.0515 29479.6
17.0668 29434
17.0822 29430.5
17.0975 29425.7
17.1128 29378.7
17.1281 29314.4
17.1434 29307.6
17.1587 29325.6
17.1741 29319.2
17.1894 29293.9
17.2047 29280.2
17.22 29265.1
17.2353 29256.5
17.2506 29253.7
17.266 29227.1
17.2813 29173.1
17.2966 29148.6
17.3119 29135.9
17.3272 29115.9
17.3425 29111
17.3579 29078.8
17.3732 29030.8
17.3885 29031.2
17.4038 29068.6
17.4191 29078.4
17.4344 29070.5
17.4498 29053
17.4651 29056.8
17.4804 29061.5
17.4957 29033
17.511 28993.5
17.5263 28990.6
17.5417 28992.2
17.557 28986.4
17.5723 29017
17.5876 29021.3
17.6029 29020.5
17.6182 29027.7
17.6336 29019.5
17.6489 29019.5
17.6642 29067.7
17.6795 29097.7
17.6948 29105
17.7101 29076.2
17.7255 29056.3
17.7408 29052.7
17.7561 29008.9
17.7714 28975.2
17.7867 28992
17.802 29009.5
17.8173 28992.7
17.8327 28977
17.848 28947
17.8633 28925.9
17.8786 28893.7
17.8939 28865.6
17.9092 28880.1
17.9246 28900.9
17.9399 28893.3
17.9552 28915.2
17.9705 28919.6
17.9858 28886.2
18.0011 28864.5
18.0165 28849.2
18.0318 28817.5
18.0471 28787.3
18.0624 28779
18.0777 28762.4
18.093 28764
18.1084 28748.2
18.1237 28732.1
18.139 28709.7
18.1543 28697.4
18.1696 28712.1
18.1849 28715.4
18.2003 28709
18.2156 28736.4
18.2309 28742.3
18.2462 28743
18.2615 28759.7
18.2768 28738.6
18.2922 28725.2
18.3075 28755.7
18.3228 28777.5
18.3381 28785.9
18.3534 28805.5
18.3687 28860.3
18.3841 28868.5
18.3994 28885
18.4147 28919.4
18.43 28915.8
18.4453 28876.9
18.4606 28855.6
18.476 28848.3
18.4913 28817.9
18.5066 28756
18.5219 28727.5
18.5372 28693.9
18.5525 28666.6
18.5679 28628.8
18.5832 28581.7
18.5985 28580
18.6138 28580.7
18.6291 28558.6
18.6444 28528.9
18.6597 28515.3
18.6751 28477.1
18.6904 28474.8
18.7057 28470.5
18.721 28450.3
18.7363 28444.7
18.7516 28457.2
18.767 28464.8
18.7823 28415.5
18.7976 28333.8
18.8129 28315
18.8282 28314.4
18.8435 28276.1
18.8589 28256.6
18.8742 28228.5
18.8895 28211
18.9048 28183.7
18.9201 28124.1
18.9354 28082.6
18.9508 28096.3
18.9661 28117.2
18.9814 28095.9
18.9967 28072.9
19.012 28042
19.0273 28033.9
19.0427 28041.1
19.058 28008.9
19.0733 27948.5
19.0886 27914.6
19.1039 27902.3
19.1192 27882.6
19.1346 27853.3
19.1499 27848.2
19.1652 27886.4
19.1805 27867.2
19.1958 27857.4
19.2111 27867.6
19.2265 27893.8
19.2418 27878.7
19.2571 27837.2
19.2724 27816.6
19.2877 27817
19.303 27795.9
19.3184 27739.8
19.3337 27695.4
19.349 27700.1
19.3643 27653.1
19.3796 27613.2
19.3949 27606.2
19.4102 27603.8
19.4256 27625
19.4409 27604.1
19.4562 27568.6
19.4715 27541.2
19.4868 27515.9
19.5021 27489
19.5175 27497.3
19.5328 27510.2
19.5481 27460.1
19.5634 27425.9
19.5787 27436.8
19.594 27439
19.6094 27451.9
19.6247 27425.4
19.64 27361.1
19.6553 27369.7
19.6706 27365.6
19.6859 27332
19.7013 27344.4
19.7166 27354.3
19.7319 27352.4
19.7472 27311.3
19.7625 27288.5
19.7778 27283.2
19.7932 27265.9
19.8085 27264.3
19.8238 27286.7
19.8391 27254.2
19.8544 27213.9
19.8697 27204.7
19.8851 27214
19.9004 27216.6
19.9157 27178.9
19.931 27169.3
19.9463 27207.9
19.9616 27306.2
19.977 27288.8
19.9923 27163.2
20.0076 27157.4
20.0229 27158.1
20.0382 27140
20.0535 27127.1
20.0689 27123.3
20.0842 27120.6
20.0995 27111.7
20.1148 27122.4
20.1301 27091.4
20.1454 27073.1
20.1608 27092.3
20.1761 27100.3
20.1914 27052.4
20.2067 27020.9
20.222 26987.2
20.2373 27012.1
20.2526 27042.5
20.268 27047.5
20.2833 27035.7
20.2986 27025
20.3139 27021.4
20.3292 27020.9
20.3445 26995.3
20.3599 27004.3
20.3752 26997.3
20.3905 27004.6
20.4058 27022.7
20.4211 27020.9
20.4364 27032.3
20.4518 27053.2
20.4671 27043.8
20.4824 27039.4
20.4977 27023
20.513 27009.2
20.5283 27039.6
20.5437 27014.7
20.559 26999
20.5743 26972.6
20.5896 26953.4
20.6049 26943.1
20.6202 26924.9
20.6356 26904.6
20.6509 26931.3
20.6662 26970.9
20.6815 27000.6
20.6968 26983
20.7121 26916.9
20.7275 26906.8
20.7428 26931.1
20.7581 26889.6
20.7734 26862.5
20.7887 26881
20.804 26879.7
20.8194 26908.4
20.8347 26893.7
20.85 26910.7
20.8653 26912.4
20.8806 26902.9
20.8959 26875.9
20.9113 26868.5
20.9266 26884.9
20.9419 26864.3
20.9572 26829.4
20.9725 26810.4
20.9878 26807.1
21.0031 26797.3
21.0185 26833.2
21.0338 26812.8
21.0491 26779.7
21.0644 26785.9
21.0797 26788.4
21.095 26804
21.1104 26831
21.1257 26837
21.141 26789.2
21.1563 26767.5
21.1716 26775.5
21.1869 26805.7
21.2023 26806.7
21.2176 26785.1
21.2329 26774.4
21.2482 26763.6
21.2635 26786.1
21.2788 26781.9
21.2942 26777.2
21.3095 26754.2
21.3248 26822.9
21.3401 26828.7
21.3554 26827.6
21.3707 26778.1
21.3861 26767.4
21.4014 26768.9
21.4167 26755.8
21.432 26746.7
21.4473 26753.7
21.4626 26752.4
21.478 26714.8
21.4933 26741.2
21.5086 26761.3
21.5239 26766.8
21.5392 26778.5
21.5545 26747.4
21.5699 26718.7
21.5852 26723.8
21.6005 26756.3
21.6158 26757.5
21.6311 26749.7
21.6464 26749
21.6618 26736.9
21.6771 26728.2
21.6924 26753.4
21.7077 26767.2
21.723 26759
21.7383 26780.1
21.7537 26785.2
21.769 26790.1
21.7843 26779.5
21.7996 26743.6
21.8149 26786.1
21.8302 26773.3
21.8455 26748.3
21.8609 26755.5
21.8762 26768.6
21.8915 26772.7
21.9068 26785
21.9221 26808.2
21.9374 26835.9
21.9528 26860.5
21.9681 26846.9
21.9834 26845.5
21.9987 26842.4
22.014 26843.6
22.0293 26879
22.0447 26921.9
22.06 26934.4
22.0753 26932.8
22.0906 26928.3
22.1059 26893
22.1212 26915
22.1366 26916
22.1519 26937.3
22.1672 26936.4
22.1825 26935
22.1978 26965.7
22.2131 26970.2
22.2285 27006.6
22.2438 27000.5
22.2591 26994.3
22.2744 26964.3
22.2897 26988.1
22.305 27018
22.3204 27026.2
22.3357 27068.9
22.351 27063.1
22.3663 27022.8
22.3816 27084.4
22.3969 27168.6
22.4123 27158.7
22.4276 27148.5
22.4429 27087.3
22.4582 27057.8
22.4735 27061.6
22.4888 27096.1
22.5042 27119.5
22.5195 27094.9
22.5348 27086.3
22.5501 27120.4
22.5654 27086.9
22.5807 27047.7
22.596 27098.6
22.6114 27152.2
22.6267 27138
22.642 27127.3
22.6573 27125.1
22.6726 27138
22.6879 27210.9
22.7033 27199.9
22.7186 27159.2
22.7339 27141.2
22.7492 27114.9
22.7645 27149.2
22.7798 27175.4
22.7952 27199.1
22.8105 27221.1
22.8258 27247.8
22.8411 27221.5
22.8564 27238.6
22.8717 27248.5
22.8871 27223.5
22.9024 27279.9
22.9177 27260.3
22.933 27213.4
22.9483 27197.5
22.9636 27281.9
22.979 27324.6
22.9943 27393.9
