# xPDFsuite Configuration #
[PDF]
wavelength = 0.1
dataformat = QA
inputfile = B3_Bronze-3nm_ss_32.chi
backgroundfile = B3_Li-bkg_ss.chi
mode = xray
bgscale = 0.98705
composition = Ti O2
outputtype = iq
qmaxinst = 23.0
qmin = 0.1
qmax = 23.0
rmax = 30.0
rmin = 0.0
rstep = 0.01
rpoly = 0.9

[Misc]
inputdir = E:/Beamtime/PETRA-III_September-2019/BeamData/processed/Run1/B3/chi/chi_w_sigmas/chi_scaled
savedir = E:/Beamtime/PETRA-III_September-2019/BeamData/processed/Run1/B3
backgroundfilefull = E:/Beamtime/PETRA-III_September-2019/BeamData/processed/Run1/B3/chi/chi_w_sigmas/chi_scaled/B3_Li-bkg_ss.chi

#### start data
#S 1
#L Q($\AA^{-1}$)  intensity(a.u.)
0.111649 0
0.126965 0
0.142282 0
0.157598 0
0.172914 0
0.188231 0
0.203547 0
0.218864 0
0.23418 0
0.249496 0
0.264813 0
0.280129 0
0.295445 0
0.310762 0
0.326078 0
0.341394 0
0.356711 0
0.372027 0
0.387343 0
0.40266 0
0.417976 0
0.433292 0
0.448609 0
0.463925 0
0.479241 0
0.494558 0
0.509874 0
0.525191 0
0.540507 0
0.555823 0
0.57114 0
0.586456 0
0.601772 0
0.617089 0
0.632405 0
0.647721 0
0.663038 0
0.678354 0
0.69367 0
0.708987 0
0.724303 0
0.739619 0
0.754936 0
0.770252 0
0.785568 0
0.800885 0
0.816201 0
0.831518 0
0.846834 0
0.86215 1.37689
0.877467 98855.5
0.892783 98981.9
0.908099 98761
0.923416 99133.1
0.938732 99838.2
0.954048 100554
0.969365 100865
0.984681 100480
0.999997 98945.6
1.01531 96568.2
1.03063 92438.6
1.04595 87380.8
1.06126 81048.9
1.07658 73609.6
1.0919 66114.5
1.10721 57586.3
1.12253 49837.1
1.13784 41972.1
1.15316 34888
1.16848 28630
1.18379 22822.9
1.19911 18133.5
1.21443 13890.5
1.22974 10400.5
1.24506 7560.98
1.26038 5442.46
1.27569 4141.99
1.29101 3417.84
1.30632 3265.46
1.32164 3612.48
1.33696 4521.46
1.35227 5784.71
1.36759 7428.27
1.38291 9183.86
1.39822 11222.6
1.41354 13123.1
1.42886 14843.8
1.44417 16464.1
1.45949 17936.1
1.4748 19363.6
1.49012 20918.4
1.50544 22894.9
1.52075 25514.1
1.53607 29017.9
1.55139 33797.8
1.5667 39662.5
1.58202 47574.8
1.59733 56592.4
1.61265 67083.1
1.62797 78693.1
1.64328 90364
1.6586 102584
1.67392 113635
1.68923 123811
1.70455 132359
1.71987 138941
1.73518 143894
1.7505 147078
1.76581 149507
1.78113 150502
1.79645 150770
1.81176 150094
1.82708 148601
1.8424 146235
1.85771 143412
1.87303 139968
1.88835 136176
1.90366 132359
1.91898 128645
1.93429 125345
1.94961 122668
1.96493 120677
1.98024 119367
1.99556 118292
2.01088 117335
2.02619 115877
2.04151 113760
2.05683 110687
2.07214 106838
2.08746 102475
2.10277 97542.9
2.11809 92716.8
2.13341 87756.5
2.14872 83197.3
2.16404 79019.3
2.17936 75330.1
2.19467 72365
2.20999 69861.1
2.22531 68070.2
2.24062 66664.4
2.25594 65544
2.27125 64528.7
2.28657 63522.2
2.30189 62578
2.3172 61477.6
2.33252 60360.9
2.34784 59123.2
2.36315 57970.3
2.37847 56935
2.39379 55874.8
2.4091 55217.9
2.42442 54705.5
2.43973 54590.7
2.45505 54595.5
2.47037 54656.3
2.48568 54911.1
2.501 55231.1
2.51632 55470.5
2.53163 55573.5
2.54695 55536.9
2.56226 55595.6
2.57758 55630.5
2.5929 55636.6
2.60821 55663.1
2.62353 55675.7
2.63885 55645.3
2.65416 55662.2
2.66948 55752.2
2.6848 56036.1
2.70011 56523.7
2.71543 57438.5
2.73074 58556.8
2.74606 59995.6
2.76138 61764.9
2.77669 63925.1
2.79201 66540.4
2.80733 69480.2
2.82264 73155.6
2.83796 77571.4
2.85328 82825.6
2.86859 89216.3
2.88391 96451.1
2.89922 105017
2.91454 114259
2.92986 124156
2.94517 134277
2.96049 143960
2.97581 153163
2.99112 160816
3.00644 166935
3.02176 170881
3.03707 172593
3.05239 172164
3.0677 169777
3.08302 165774
3.09834 160470
3.11365 154492
3.12897 148164
3.14429 141995
3.1596 136018
3.17492 130853
3.19024 126006
3.20555 121963
3.22087 118266
3.23618 114738
3.2515 111334
3.26682 107721
3.28213 104127
3.29745 100228
3.31277 96357.3
3.32808 92385.6
3.3434 88393
3.35872 84841.1
3.37403 81477.6
3.38935 78792.4
3.40466 76490.3
3.41998 74691.6
3.4353 73277.8
3.45061 72233.9
3.46593 71627.2
3.48125 71223
3.49656 71040.9
3.51188 71016.5
3.52719 71226.7
3.54251 71638.7
3.55783 72071.9
3.57314 72438.3
3.58846 72696.6
3.60378 72902.9
3.61909 73056.2
3.63441 73041.4
3.64973 73011.2
3.66504 72791.3
3.68036 72680.4
3.69567 72639.4
3.71099 72816.2
3.72631 73328.8
3.74162 74193.3
3.75694 75460
3.77226 77029.1
3.78757 78839.7
3.80289 80805.8
3.81821 82798.4
3.83352 84685.1
3.84884 86393.8
3.86415 87694.7
3.87947 88567.8
3.89479 88951.6
3.9101 88782.1
3.92542 88188.1
3.94074 87247.9
3.95605 86047.2
3.97137 84780.7
3.98669 83458.7
4.002 82324.6
4.01732 81389.3
4.03263 80715.8
4.04795 80374.7
4.06327 80445.1
4.07858 80863.6
4.0939 81601.2
4.10922 82547.6
4.12453 83655.2
4.13985 84913.8
4.15517 86082
4.17048 87127.2
4.1858 87883
4.20111 88393.8
4.21643 88684.6
4.23175 88688.6
4.24706 88508.3
4.26238 88108.1
4.2777 87707.5
4.29301 87323.7
4.30833 87009.5
4.32365 86838.4
4.33896 86855.8
4.35428 87089.2
4.36959 87361
4.38491 87702
4.40023 87889.4
4.41554 87772.4
4.43086 87218.9
4.44618 86189
4.46149 84668.2
4.47681 82756.7
4.49213 80409.2
4.50744 77784.4
4.52276 75018
4.53807 72181.5
4.55339 69514.2
4.56871 66898.4
4.58402 64547.9
4.59934 62363.2
4.61466 60511.2
4.62997 58997.4
4.64529 57754.9
4.6606 56764
4.67592 55998.7
4.69124 55504.9
4.70655 55239.4
4.72187 55165.9
4.73719 55288.2
4.7525 55587.1
4.76782 56092.5
4.78314 56821.1
4.79845 57697.8
4.81377 58693.7
4.82908 59763.2
4.8444 60927.3
4.85972 62159.9
4.87503 63397.8
4.89035 64638.6
4.90567 65872.7
4.92098 67142.2
4.9363 68494.2
4.95162 69932.1
4.96693 71502.4
4.98225 73347.3
4.99756 75644.2
5.01288 78154.9
5.0282 80706.6
5.04351 83347.4
5.05883 85499.7
5.07415 87178.8
5.08946 88237
5.10478 88446.9
5.1201 88131.6
5.13541 87139.6
5.15073 85867.6
5.16604 84239.2
5.18136 82554.1
5.19668 80981.7
5.21199 79677.3
5.22731 78612.6
5.24263 77784
5.25794 77024.4
5.27326 76414.9
5.28858 75946
5.30389 75671.1
5.31921 75652
5.33452 75844
5.34984 76248.6
5.36516 76614.8
5.38047 76822.8
5.39579 76612.1
5.41111 75893.4
5.42642 74564.5
5.44174 72712.9
5.45706 70263.2
5.47237 67443.9
5.48769 64351.5
5.503 61266.2
5.51832 58463
5.53364 55924.9
5.54895 53957
5.56427 52429.2
5.57959 51317.4
5.5949 50580.3
5.61022 49995.4
5.62553 49569.8
5.64085 49172.5
5.65617 48823.2
5.67148 48548.8
5.6868 48316.3
5.70212 48088.5
5.71743 47894
5.73275 47809.3
5.74807 47814.9
5.76338 47952.9
5.7787 48178.4
5.79401 48522.7
5.80933 49008
5.82465 49555.1
5.83996 50210
5.85528 50871.4
5.8706 51603.8
5.88591 52348.3
5.90123 53071.5
5.91655 53769.8
5.93186 54418.3
5.94718 54974.4
5.96249 55393.6
5.97781 55720.4
5.99313 55873.6
6.00844 55901.2
6.02376 55735.6
6.03908 55508.8
6.05439 55194.6
6.06971 54831.1
6.08503 54436.3
6.10034 54043.6
6.11566 53709.2
6.13097 53422.6
6.14629 53177.6
6.16161 52994.9
6.17692 52890.2
6.19224 52896.8
6.20756 52942.2
6.22287 53109.4
6.23819 53323.7
6.25351 53606.2
6.26882 53858.7
6.28414 54042.9
6.29945 54085.2
6.31477 53969.5
6.33009 53704.6
6.3454 53294.6
6.36072 52780.1
6.37604 52244.3
6.39135 51705.6
6.40667 51199.1
6.42199 50745
6.4373 50405.4
6.45262 50174.4
6.46793 50049.9
6.48325 50015.4
6.49857 50032
6.51388 50082.4
6.5292 50136.7
6.54452 50190.8
6.55983 50209.1
6.57515 50294.2
6.59046 50395.1
6.60578 50578
6.6211 50771.9
6.63641 51026.7
6.65173 51294.3
6.66705 51609.6
6.68236 51977
6.69768 52355.1
6.713 52759.9
6.72831 53153.2
6.74363 53526.8
6.75894 53902.1
6.77426 54272.2
6.78958 54638.2
6.80489 54954
6.82021 55209.4
6.83553 55382.7
6.85084 55465.1
6.86616 55462.9
6.88148 55353.4
6.89679 55170.4
6.91211 54905.5
6.92742 54599.2
6.94274 54256
6.95806 53872.1
6.97337 53460.9
6.98869 53061.7
7.00401 52689.6
7.01932 52336.8
7.03464 51967.8
7.04996 51652.8
7.06527 51374.7
7.08059 51173.9
7.0959 50995
7.11122 50843.6
7.12654 50668.7
7.14185 50533.5
7.15717 50437.6
7.17249 50356.7
7.1878 50258.4
7.20312 50158
7.21844 50059.6
7.23375 49967.9
7.24907 49852.4
7.26438 49769.1
7.2797 49642.7
7.29502 49536.5
7.31033 49397.3
7.32565 49261.1
7.34097 49129.6
7.35628 49009.8
7.3716 48878.9
7.38692 48756.5
7.40223 48675.2
7.41755 48629.4
7.43286 48620.5
7.44818 48614
7.4635 48638
7.47881 48665.9
7.49413 48723.2
7.50945 48775.3
7.52476 48824.5
7.54008 48795.9
7.55539 48709.5
7.57071 48532
7.58603 48275.8
7.60134 47964.7
7.61666 47608.1
7.63198 47232.5
7.64729 46873.6
7.66261 46547.3
7.67793 46339.7
7.69324 46216.8
7.70856 46208.1
7.72387 46300.4
7.73919 46511.9
7.75451 46791.9
7.76982 47138.1
7.78514 47480.7
7.80046 47786.3
7.81577 47971.7
7.83109 48022.7
7.84641 47951.2
7.86172 47729.2
7.87704 47374.3
7.89235 46924.6
7.90767 46438.8
7.92299 45945.6
7.9383 45496.8
7.95362 45080.6
7.96894 44722.7
7.98425 44393.9
7.99957 44130.2
8.01489 43900.8
8.0302 43690.6
8.04552 43486.4
8.06083 43313.7
8.07615 43180.6
8.09147 43076.3
8.10678 43037.8
8.1221 43019.4
8.13742 43053.9
8.15273 43115.1
8.16805 43237.5
8.18337 43343.9
8.19868 43493.3
8.214 43654.2
8.22931 43868.5
8.24463 44047.4
8.25995 44141.2
8.27526 44158.8
8.29058 44107.4
8.3059 44053.1
8.32121 43943.9
8.33653 43807.4
8.35185 43653.1
8.36716 43475.1
8.38248 43295.9
8.39779 43166.7
8.41311 43057.8
8.42843 42976.4
8.44374 42902.9
8.45906 42843.2
8.47438 42769.2
8.48969 42696.3
8.50501 42640.8
8.52032 42607.9
8.53564 42585.4
8.55096 42571.5
8.56627 42571.6
8.58159 42584.8
8.59691 42598.1
8.61222 42649.3
8.62754 42733.9
8.64286 42821
8.65817 42944.4
8.67349 43059.2
8.6888 43216.3
8.70412 43394.3
8.71944 43702.4
8.73475 44093.8
8.75007 44592
8.76539 45182.5
8.7807 45829
8.79602 46432.9
8.81134 46966
8.82665 47361.7
8.84197 47645.1
8.85728 47763.1
8.8726 47771.2
8.88792 47686.6
8.90323 47580.4
8.91855 47553.5
8.93387 47623.5
8.94918 47791.5
8.9645 48007.5
8.97982 48182.4
8.99513 48262.2
9.01045 48232.9
9.02576 48040.3
9.04108 47655
9.0564 47126.9
9.07171 46467.5
9.08703 45766.9
9.10235 45009.7
9.11766 44285.8
9.13298 43632.5
9.1483 43062.8
9.16361 42576.7
9.17893 42186.9
9.19424 41861.7
9.20956 41551.9
9.22488 41293.3
9.24019 41072.7
9.25551 40909.8
9.27083 40731.3
9.28614 40559.9
9.30146 40397.3
9.31678 40254.6
9.33209 40106.4
9.34741 39981.3
9.36272 39879
9.37804 39801.6
9.39336 39743.9
9.40867 39716.2
9.42399 39690.3
9.43931 39719.8
9.45462 39762.9
9.46994 39832.4
9.48525 39887.3
9.50057 40005.4
9.51589 40144.5
9.5312 40268.2
9.54652 40361.8
9.56184 40411.4
9.57715 40392.9
9.59247 40266
9.60779 40073.9
9.6231 39839.6
9.63842 39601.7
9.65373 39363.6
9.66905 39148.9
9.68437 38994.1
9.69968 38915
9.715 38865.2
9.73032 38837
9.74563 38836.6
9.76095 38864.5
9.77627 38931.9
9.79158 39000.7
9.8069 39092.3
9.82221 39178.4
9.83753 39242.1
9.85285 39274.1
9.86816 39321.1
9.88348 39366.5
9.8988 39427.6
9.91411 39492.8
9.92943 39594.2
9.94475 39700.4
9.96006 39837.2
9.97538 39988.8
9.99069 40159.6
10.006 40318
10.0213 40497.9
10.0366 40684.4
10.052 40863.4
10.0673 41056.5
10.0826 41260.2
10.0979 41481.5
10.1132 41680
10.1285 41959.4
10.1439 42266.8
10.1592 42603.8
10.1745 42854.3
10.1898 43018.3
10.2051 43099.2
10.2204 43122.7
10.2358 43122.8
10.2511 43105
10.2664 43114.1
10.2817 43199
10.297 43359.1
10.3123 43593.3
10.3277 43812
10.343 43964.1
10.3583 44022.6
10.3736 43996.8
10.3889 43853.7
10.4042 43611.3
10.4196 43328.2
10.4349 43037.9
10.4502 42731.2
10.4655 42478
10.4808 42275.2
10.4961 42157.3
10.5115 42043
10.5268 41963.2
10.5421 41927.9
10.5574 41953.9
10.5727 42019.5
10.588 42058.7
10.6033 42083.3
10.6187 42067.6
10.634 42030.5
10.6493 41948.9
10.6646 41817.6
10.6799 41632.7
10.6952 41448.1
10.7106 41273
10.7259 41141.1
10.7412 41031.9
10.7565 40957.5
10.7718 40932.8
10.7871 40961.6
10.8025 40981.8
10.8178 41009.4
10.8331 41012.7
10.8484 40966.9
10.8637 40856.1
10.879 40688.8
10.8944 40467.5
10.9097 40188.4
10.925 39907.6
10.9403 39620.5
10.9556 39367.5
10.9709 39157.7
10.9863 38974.5
11.0016 38784.3
11.0169 38590.2
11.0322 38388.8
11.0475 38207
11.0628 38013
11.0782 37825.8
11.0935 37646.3
11.1088 37467.1
11.1241 37300.4
11.1394 37132.8
11.1547 36979.9
11.1701 36825.9
11.1854 36734.8
11.2007 36639.5
11.216 36516.9
11.2313 36428.5
11.2466 36338.1
11.262 36259.7
11.2773 36192.7
11.2926 36160.7
11.3079 36132.1
11.3232 36090.8
11.3385 36038.7
11.3538 35990.6
11.3692 35941.5
11.3845 35887.9
11.3998 35840.6
11.4151 35794.1
11.4304 35764.9
11.4457 35756.8
11.4611 35779.7
11.4764 35807
11.4917 35858.7
11.507 35891.7
11.5223 35944.6
11.5376 35976.1
11.553 36008
11.5683 36054.5
11.5836 36079.2
11.5989 36075.2
11.6142 36042.1
11.6295 36011.3
11.6449 35948.6
11.6602 35868.4
11.6755 35806.1
11.6908 35737.7
11.7061 35701.5
11.7214 35679.8
11.7368 35683
11.7521 35715.3
11.7674 35760
11.7827 35791.4
11.798 35837
11.8133 35853.1
11.8287 35828.5
11.844 35802.4
11.8593 35760.1
11.8746 35709.1
11.8899 35694.3
11.9052 35657.9
11.9206 35624.8
11.9359 35606.7
11.9512 35611.6
11.9665 35622.3
11.9818 35641.7
11.9971 35658.8
12.0125 35652.6
12.0278 35624
12.0431 35589.7
12.0584 35548.1
12.0737 35509
12.089 35468.2
12.1044 35436.7
12.1197 35401
12.135 35392.1
12.1503 35392.4
12.1656 35373
12.1809 35333.6
12.1962 35312.4
12.2116 35270.8
12.2269 35241.8
12.2422 35206.6
12.2575 35215.7
12.2728 35214.1
12.2881 35206.6
12.3035 35194
12.3188 35204.4
12.3341 35182.1
12.3494 35149.6
12.3647 35118.2
12.38 35103.3
12.3954 35091
12.4107 35075.9
12.426 35076.7
12.4413 35062.8
12.4566 35051
12.4719 35014.1
12.4873 34967.9
12.5026 34924.6
12.5179 34898.7
12.5332 34862
12.5485 34857.1
12.5638 34872.6
12.5792 34884.4
12.5945 34880
12.6098 34869.5
12.6251 34882.8
12.6404 34903.5
12.6557 34934.8
12.6711 34951.1
12.6864 34950.7
12.7017 34949.4
12.717 34943.5
12.7323 34930.3
12.7476 34943.9
12.763 34981.4
12.7783 35021.4
12.7936 35076.3
12.8089 35149.2
12.8242 35224.9
12.8395 35300
12.8549 35342.1
12.8702 35313.4
12.8855 35240.7
12.9008 35165.8
12.9161 35081.4
12.9314 34988.4
12.9467 34910.5
12.9621 34858.2
12.9774 34817.7
12.9927 34792
13.008 34772.7
13.0233 34752
13.0386 34710.4
13.054 34705.9
13.0693 34693.3
13.0846 34692.5
13.0999 34704.2
13.1152 34712.9
13.1305 34694.7
13.1459 34669.7
13.1612 34681.7
13.1765 34675.5
13.1918 34661.6
13.2071 34644.2
13.2224 34648.3
13.2378 34646.2
13.2531 34648.4
13.2684 34698.3
13.2837 34709.3
13.299 34728.5
13.3143 34750.9
13.3297 34763.9
13.345 34800.5
13.3603 34845.5
13.3756 34937.5
13.3909 35083.3
13.4062 35221.1
13.4216 35391.4
13.4369 35592.3
13.4522 35798.4
13.4675 35991.8
13.4828 36143.8
13.4981 36245.1
13.5135 36320.9
13.5288 36367.2
13.5441 36400.4
13.5594 36447.7
13.5747 36511.4
13.59 36560.3
13.6054 36549.8
13.6207 36478.5
13.636 36362.5
13.6513 36195.4
13.6666 36020
13.6819 35834.8
13.6973 35651.5
13.7126 35463
13.7279 35314.4
13.7432 35193
13.7585 35078
13.7738 34982.4
13.7891 34926.5
13.8045 34853.9
13.8198 34776.4
13.8351 34725.6
13.8504 34694
13.8657 34656.5
13.881 34634.8
13.8964 34655.4
13.9117 34683.6
13.927 34702.4
13.9423 34731.1
13.9576 34759.4
13.9729 34729.5
13.9883 34684.5
14.0036 34590.8
14.0189 34497.2
14.0342 34363.3
14.0495 34245.5
14.0648 34132.8
14.0802 34029.3
14.0955 33896.2
14.1108 33762.1
14.1261 33628.5
14.1414 33533.9
14.1567 33442.4
14.1721 33360.4
14.1874 33326.9
14.2027 33276.7
14.218 33230.8
14.2333 33201.8
14.2486 33172.9
14.264 33155.8
14.2793 33137
14.2946 33096.5
14.3099 33059.8
14.3252 33010.2
14.3405 32981.1
14.3559 32969
14.3712 32942.9
14.3865 32934.4
14.4018 32912
14.4171 32894.3
14.4324 32871.9
14.4478 32847.1
14.4631 32806.2
14.4784 32797.8
14.4937 32801.7
14.509 32806.1
14.5243 32818.6
14.5397 32812
14.555 32820.5
14.5703 32835.3
14.5856 32847.9
14.6009 32835.9
14.6162 32814.7
14.6315 32756.5
14.6469 32696.2
14.6622 32656
14.6775 32620.4
14.6928 32584.4
14.7081 32523.9
14.7234 32504.5
14.7388 32491.8
14.7541 32457.7
14.7694 32408.7
14.7847 32353.6
14.8 32284.9
14.8153 32222
14.8307 32187.8
14.846 32169.2
14.8613 32141.7
14.8766 32090.8
14.8919 32050.1
14.9072 32017.9
14.9226 31986.7
14.9379 31943.5
14.9532 31919.6
14.9685 31925.8
14.9838 31915.3
14.9991 31907.2
15.0145 31885.6
15.0298 31881.8
15.0451 31863.5
15.0604 31840
15.0757 31826
15.091 31812.3
15.1064 31817.3
15.1217 31832.6
15.137 31835.5
15.1523 31844.4
15.1676 31881.1
15.1829 31911.5
15.1983 31931.5
15.2136 31956.5
15.2289 31988.9
15.2442 32037.7
15.2595 32074
15.2748 32078.6
15.2902 32111.2
15.3055 32151
15.3208 32205
15.3361 32251.1
15.3514 32280.2
15.3667 32289.9
15.382 32286.4
15.3974 32280.9
15.4127 32285.4
15.428 32275.7
15.4433 32247
15.4586 32216.8
15.4739 32189.1
15.4893 32158.7
15.5046 32127.7
15.5199 32087.6
15.5352 32036.9
15.5505 31984.1
15.5658 31965
15.5812 31956.5
15.5965 31956.6
15.6118 31949.1
15.6271 31946.1
15.6424 31920.6
15.6577 31886.2
15.6731 31861.3
15.6884 31845.1
15.7037 31861.3
15.719 31860.2
15.7343 31829.8
15.7496 31800.4
15.765 31753
15.7803 31726.7
15.7956 31680.4
15.8109 31658.3
15.8262 31637.2
15.8415 31584.6
15.8569 31510.6
15.8722 31446.9
15.8875 31390
15.9028 31331.4
15.9181 31296.1
15.9334 31238.7
15.9488 31198.9
15.9641 31177.2
15.9794 31157.1
15.9947 31127.8
16.01 31066.4
16.0253 31032.5
16.0407 31011.1
16.056 31010.3
16.0713 31013.7
16.0866 30975.2
16.1019 30973.7
16.1172 30969.6
16.1326 30954.8
16.1479 30942.3
16.1632 30957.6
16.1785 30990.9
16.1938 31006.2
16.2091 30985
16.2244 30954.8
16.2398 30941
16.2551 30939.2
16.2704 30967.8
16.2857 30954.9
16.301 30943.1
16.3163 30954.5
16.3317 30931.4
16.347 30928.1
16.3623 30928.4
16.3776 30906.3
16.3929 30881.5
16.4082 30869.8
16.4236 30866.4
16.4389 30828.2
16.4542 30797.8
16.4695 30763
16.4848 30724.8
16.5001 30696.7
16.5155 30699.8
16.5308 30687.7
16.5461 30653.4
16.5614 30623.1
16.5767 30574.3
16.592 30520.9
16.6074 30447
16.6227 30403.5
16.638 30385.9
16.6533 30408.9
16.6686 30414.4
16.6839 30377
16.6993 30313.9
16.7146 30244.9
16.7299 30224.6
16.7452 30239.9
16.7605 30230
16.7758 30223.2
16.7912 30206.2
16.8065 30197.7
16.8218 30175
16.8371 30149.4
16.8524 30126.7
16.8677 30119.8
16.8831 30104.7
16.8984 30082.7
16.9137 30032.5
16.929 29995.7
16.9443 30021.3
16.9596 30047
16.9749 30035.5
16.9903 30007.1
17.0056 29985.1
17.0209 29949.2
17.0362 29928
17.0515 29912.7
17.0668 29874.3
17.0822 29863
17.0975 29858.4
17.1128 29819
17.1281 29771.1
17.1434 29732.2
17.1587 29715.3
17.1741 29710
17.1894 29667.1
17.2047 29656.4
17.22 29637.9
17.2353 29597.2
17.2506 29591.9
17.266 29595.3
17.2813 29608.9
17.2966 29622.5
17.3119 29598
17.3272 29547.5
17.3425 29534.6
17.3579 29529.8
17.3732 29494.7
17.3885 29510.6
17.4038 29513.3
17.4191 29494.1
17.4344 29493.9
17.4498 29485.5
17.4651 29496.9
17.4804 29511.5
17.4957 29508.8
17.511 29473.9
17.5263 29427.1
17.5417 29420.2
17.557 29458.6
17.5723 29462.4
17.5876 29450
17.6029 29455.8
17.6182 29447.7
17.6336 29454
17.6489 29482.8
17.6642 29496.6
17.6795 29496.7
17.6948 29515.8
17.7101 29503.1
17.7255 29479.9
17.7408 29477.1
17.7561 29468.1
17.7714 29467.3
17.7867 29471.5
17.802 29451
17.8173 29420.4
17.8327 29386.3
17.848 29358.5
17.8633 29345.7
17.8786 29321
17.8939 29291.6
17.9092 29304.1
17.9246 29329.6
17.9399 29327.4
17.9552 29315.9
17.9705 29314.3
17.9858 29301.4
18.0011 29261.1
18.0165 29240.3
18.0318 29215
18.0471 29198.3
18.0624 29185.6
18.0777 29162.2
18.093 29157.4
18.1084 29165.9
18.1237 29196.8
18.139 29185.6
18.1543 29161.1
18.1696 29176.4
18.1849 29133.9
18.2003 29096
18.2156 29123.9
18.2309 29143.1
18.2462 29142.7
18.2615 29153.6
18.2768 29143.4
18.2922 29102.6
18.3075 29119.1
18.3228 29164.1
18.3381 29176.6
18.3534 29158.6
18.3687 29147.7
18.3841 29188.7
18.3994 29231.3
18.4147 29258.1
18.43 29286.2
18.4453 29291.2
18.4606 29263.5
18.476 29242
18.4913 29209
18.5066 29170.6
18.5219 29145.1
18.5372 29110.1
18.5525 29096.8
18.5679 29092.6
18.5832 29050.2
18.5985 29026.4
18.6138 29032.5
18.6291 29006.2
18.6444 28957.2
18.6597 28939.8
18.6751 28898.8
18.6904 28891.2
18.7057 28879.2
18.721 28831.8
18.7363 28784.1
18.7516 28793.2
18.767 28843.9
18.7823 28828.2
18.7976 28753.3
18.8129 28748.3
18.8282 28742.5
18.8435 28690.1
18.8589 28667.7
18.8742 28654.6
18.8895 28625.7
18.9048 28600.7
18.9201 28575.5
18.9354 28573.3
18.9508 28560.4
18.9661 28509.2
18.9814 28477.5
18.9967 28454.6
19.012 28404.8
19.0273 28389
19.0427 28391.3
19.058 28396.8
19.0733 28385.1
19.0886 28350
19.1039 28331.3
19.1192 28327.4
19.1346 28339.1
19.1499 28332.7
19.1652 28323.7
19.1805 28273.8
19.1958 28296
19.2111 28325.1
19.2265 28298
19.2418 28275
19.2571 28253.7
19.2724 28228.4
19.2877 28219.6
19.303 28186.3
19.3184 28137.5
19.3337 28087.3
19.349 28077.1
19.3643 28066.5
19.3796 28041.8
19.3949 28021.8
19.4102 28027.5
19.4256 28018.3
19.4409 27989.1
19.4562 27982.2
19.4715 27974.8
19.4868 27958.2
19.5021 27912
19.5175 27900.2
19.5328 27918.4
19.5481 27889.5
19.5634 27854.7
19.5787 27839.2
19.594 27795.7
19.6094 27795.2
19.6247 27794.4
19.64 27765.4
19.6553 27790.5
19.6706 27776.5
19.6859 27770
19.7013 27764.6
19.7166 27744.9
19.7319 27725.7
19.7472 27676.3
19.7625 27655.1
19.7778 27682.5
19.7932 27699.7
19.8085 27660.2
19.8238 27655.1
19.8391 27653.9
19.8544 27601.9
19.8697 27607.2
19.8851 27670.2
19.9004 27664.3
19.9157 27606.3
19.931 27585
19.9463 27601.2
19.9616 27567.5
19.977 27503.7
19.9923 27561.7
20.0076 27577.2
20.0229 27567
20.0382 27548.3
20.0535 27516.1
20.0689 27499.6
20.0842 27494.1
20.0995 27411.8
20.1148 27402.7
20.1301 27429.5
20.1454 27410.2
20.1608 27424.2
20.1761 27446.3
20.1914 27425.3
20.2067 27409.3
20.222 27412.5
20.2373 27439.1
20.2526 27445.8
20.268 27443.9
20.2833 27454.8
20.2986 27461.9
20.3139 27459.9
20.3292 27427.7
20.3445 27397.4
20.3599 27390.2
20.3752 27355.8
20.3905 27360.9
20.4058 27413.4
20.4211 27394.2
20.4364 27397.3
20.4518 27429
20.4671 27397.3
20.4824 27389.9
20.4977 27402.9
20.513 27407.9
20.5283 27425.4
20.5437 27435.7
20.559 27427.2
20.5743 27390.8
20.5896 27362.4
20.6049 27369
20.6202 27371.7
20.6356 27359
20.6509 27369.6
20.6662 27358.7
20.6815 27355.8
20.6968 27358.6
20.7121 27313.1
20.7275 27301.6
20.7428 27316.9
20.7581 27304.9
20.7734 27280.4
20.7887 27275.7
20.804 27262.2
20.8194 27294.6
20.8347 27290.2
20.85 27277.6
20.8653 27230.4
20.8806 27238.5
20.8959 27226.1
20.9113 27208.3
20.9266 27226.1
20.9419 27224.7
20.9572 27236.3
20.9725 27230.1
20.9878 27187.2
21.0031 27153.9
21.0185 27233.2
21.0338 27224.9
21.0491 27206.7
21.0644 27194.1
21.0797 27194
21.095 27222.4
21.1104 27233.3
21.1257 27210.3
21.141 27192
21.1563 27171.4
21.1716 27217.3
21.1869 27232.2
21.2023 27197.4
21.2176 27159.2
21.2329 27167.3
21.2482 27187.4
21.2635 27183.2
21.2788 27189.6
21.2942 27211.7
21.3095 27171.1
21.3248 27159.6
21.3401 27194.9
21.3554 27195.2
21.3707 27143.6
21.3861 27137.5
21.4014 27103.5
21.4167 27087.3
21.432 27111.3
21.4473 27116.2
21.4626 27098.3
21.478 27094.7
21.4933 27153.7
21.5086 27167.4
21.5239 27154
21.5392 27149.3
21.5545 27125.4
21.5699 27098.5
21.5852 27103
21.6005 27130.2
21.6158 27129.8
21.6311 27124.2
21.6464 27106.4
21.6618 27127.2
21.6771 27119.7
21.6924 27107.3
21.7077 27092.3
21.723 27121.8
21.7383 27134.9
21.7537 27146.9
21.769 27182.8
21.7843 27211.5
21.7996 27169.3
21.8149 27186
21.8302 27218.3
21.8455 27193.8
21.8609 27137.3
21.8762 27095.8
21.8915 27119
21.9068 27165.7
21.9221 27178.7
21.9374 27179.3
21.9528 27169.2
21.9681 27151
21.9834 27184
21.9987 27209.3
22.014 27171.9
22.0293 27223.3
22.0447 27280.5
22.06 27295.1
22.0753 27277.7
22.0906 27230.2
22.1059 27237.4
22.1212 27265.3
22.1366 27291
22.1519 27333.3
22.1672 27362
22.1825 27357.3
22.1978 27374.7
22.2131 27343.6
22.2285 27323.1
22.2438 27327.1
22.2591 27286.5
22.2744 27297.4
22.2897 27314
22.305 27319.2
22.3204 27330.2
22.3357 27367.4
22.351 27369.9
22.3663 27371.7
22.3816 27414.5
22.3969 27445.2
22.4123 27406.8
22.4276 27413.3
22.4429 27430.9
22.4582 27422.8
22.4735 27413.5
22.4888 27405.9
22.5042 27425.8
22.5195 27455
22.5348 27469.9
22.5501 27493
22.5654 27430.3
22.5807 27391.6
22.596 27409.7
22.6114 27455.2
22.6267 27401.7
22.642 27399.1
22.6573 27444.3
22.6726 27460.8
22.6879 27498
22.7033 27493.7
22.7186 27459.7
22.7339 27446.3
22.7492 27478.9
22.7645 27513
22.7798 27537.9
22.7952 27532.4
22.8105 27516.1
22.8258 27522.4
22.8411 27501.3
22.8564 27544.9
22.8717 27581.9
22.8871 27527.5
22.9024 27554.3
22.9177 27554.3
22.933 27569.2
22.9483 27628.5
22.9636 27666.7
22.979 27654.5
22.9943 27674.2
