# xPDFsuite Configuration #
[PDF]
wavelength = 0.1
dataformat = QA
inputfile = B3_Bronze-3nm_ss_22.chi
backgroundfile = B3_Li-bkg_ss.chi
mode = xray
bgscale = 0.98705
composition = Ti O2
outputtype = iq
qmaxinst = 23.0
qmin = 0.1
qmax = 23.0
rmax = 30.0
rmin = 0.0
rstep = 0.01
rpoly = 0.9

[Misc]
inputdir = E:/Beamtime/PETRA-III_September-2019/BeamData/processed/Run1/B3/chi/chi_w_sigmas/chi_scaled
savedir = E:/Beamtime/PETRA-III_September-2019/BeamData/processed/Run1/B3
backgroundfilefull = E:/Beamtime/PETRA-III_September-2019/BeamData/processed/Run1/B3/chi/chi_w_sigmas/chi_scaled/B3_Li-bkg_ss.chi

#### start data
#S 1
#L Q($\AA^{-1}$)  intensity(a.u.)
0.111649 0
0.126965 0
0.142282 0
0.157598 0
0.172914 0
0.188231 0
0.203547 0
0.218864 0
0.23418 0
0.249496 0
0.264813 0
0.280129 0
0.295445 0
0.310762 0
0.326078 0
0.341394 0
0.356711 0
0.372027 0
0.387343 0
0.40266 0
0.417976 0
0.433292 0
0.448609 0
0.463925 0
0.479241 0
0.494558 0
0.509874 0
0.525191 0
0.540507 0
0.555823 0
0.57114 0
0.586456 0
0.601772 0
0.617089 0
0.632405 0
0.647721 0
0.663038 0
0.678354 0
0.69367 0
0.708987 0
0.724303 0
0.739619 0
0.754936 0
0.770252 0
0.785568 0
0.800885 0
0.816201 0
0.831518 0
0.846834 0
0.86215 1.57113
0.877467 112802
0.892783 114188
0.908099 115295
0.923416 116861
0.938732 119469
0.954048 121754
0.969365 123198
0.984681 123232
0.999997 121468
1.01531 118257
1.03063 112566
1.04595 105653
1.06126 97335.8
1.07658 87846.7
1.0919 78428
1.10721 67926.8
1.12253 58477.8
1.13784 49088.2
1.15316 40643.2
1.16848 33352.2
1.18379 26586
1.19911 21138.2
1.21443 16182.5
1.22974 12141
1.24506 8956.7
1.26038 6496.65
1.27569 4774.79
1.29101 3583.91
1.30632 3028.13
1.32164 3170.31
1.33696 3839.45
1.35227 4886.75
1.36759 6381.93
1.38291 8093.98
1.39822 10172.9
1.41354 12182.7
1.42886 14101.8
1.44417 15979.3
1.45949 17877.1
1.4748 20064
1.49012 22444.1
1.50544 25548.1
1.52075 29452.7
1.53607 34421.2
1.55139 40826.2
1.5667 48212.2
1.58202 57459.9
1.59733 67224.4
1.61265 77638.5
1.62797 88283.8
1.64328 98166.4
1.6586 107654
1.67392 115413
1.68923 121746
1.70455 126117
1.71987 128890
1.73518 130392
1.7505 131038
1.76581 131626
1.78113 131946
1.79645 132393
1.81176 132628
1.82708 132585
1.8424 131995
1.85771 130959
1.87303 129198
1.88835 126950
1.90366 124259
1.91898 121096
1.93429 117776
1.94961 114401
1.96493 111358
1.98024 108580
1.99556 105902
2.01088 103302
2.02619 100228
2.04151 96903.8
2.05683 92908.4
2.07214 88718.4
2.08746 84518.2
2.10277 80296.7
2.11809 76600.8
2.13341 73098.8
2.14872 70180
2.16404 67667.5
2.17936 65569.8
2.19467 63855.3
2.20999 62350.5
2.22531 61080.4
2.24062 59930.1
2.25594 58790.7
2.27125 57702.4
2.28657 56550.3
2.30189 55572.3
2.3172 54632.2
2.33252 53843.2
2.34784 53172.4
2.36315 52674
2.37847 52318.7
2.39379 51977
2.4091 51941.6
2.42442 51856
2.43973 52061.5
2.45505 52223.4
2.47037 52380.2
2.48568 52612
2.501 52913.5
2.51632 53265.7
2.53163 53494.7
2.54695 53878.5
2.56226 54320.6
2.57758 54890.8
2.5929 55319
2.60821 55673.9
2.62353 55877.4
2.63885 56027.9
2.65416 56198.5
2.66948 56448.9
2.6848 56853.3
2.70011 57383
2.71543 58408.3
2.73074 59703.8
2.74606 61619.6
2.76138 64170.6
2.77669 67402.2
2.79201 71586.9
2.80733 76547.6
2.82264 82883.2
2.83796 90472.9
2.85328 99425.7
2.86859 110206
2.88391 121926
2.89922 135333
2.91454 148959
2.92986 162601
2.94517 175503
2.96049 186868
2.97581 196706
2.99112 203919
3.00644 208716
3.02176 210672
3.03707 210143
3.05239 207257
3.0677 202593
3.08302 196347
3.09834 189175
3.11365 181343
3.12897 173117
3.14429 164849
3.1596 156466
3.17492 148499
3.19024 140374
3.20555 132917
3.22087 125800
3.23618 118994
3.2515 112729
3.26682 106732
3.28213 101296
3.29745 96055.6
3.31277 91370.9
3.32808 87037.9
3.3434 83060.4
3.35872 79704.2
3.37403 76727.4
3.38935 74415.1
3.40466 72588.7
3.41998 71236.5
3.4353 70289.6
3.45061 69642.9
3.46593 69387.6
3.48125 69244.5
3.49656 69256.6
3.51188 69217.7
3.52719 69250.3
3.54251 69250.5
3.55783 69122.2
3.57314 68875
3.58846 68476
3.60378 68043.4
3.61909 67648.7
3.63441 67274.7
3.64973 67076.3
3.66504 66942.3
3.68036 67104.2
3.69567 67515
3.71099 68180.4
3.72631 69101.4
3.74162 70167.8
3.75694 71376.8
3.77226 72495.7
3.78757 73465.1
3.80289 74225.2
3.81821 74713.5
3.83352 74849.4
3.84884 74709.1
3.86415 74230.9
3.87947 73460.9
3.89479 72519.8
3.9101 71552.6
3.92542 70596.6
3.94074 69770
3.95605 69050.8
3.97137 68587
3.98669 68263.7
4.002 68235.3
4.01732 68423.9
4.03263 68867.8
4.04795 69536.5
4.06327 70559.7
4.07858 71879.7
4.0939 73622
4.10922 75734.9
4.12453 78248.1
4.13985 81160.4
4.15517 84218.7
4.17048 87493.6
4.1858 90611.1
4.20111 93734.5
4.21643 96646.2
4.23175 99233.9
4.24706 101512
4.26238 103204
4.2777 104490
4.29301 105113
4.30833 105095
4.32365 104451
4.33896 103227
4.35428 101398
4.36959 98967.2
4.38491 95947
4.40023 92606.2
4.41554 88848.1
4.43086 84893
4.44618 80894.4
4.46149 76835.7
4.47681 73111.4
4.49213 69633
4.50744 66601.3
4.52276 63999.2
4.53807 61734.5
4.55339 59921
4.56871 58392.1
4.58402 57193.7
4.59934 56251.4
4.61466 55595.1
4.62997 55194.5
4.64529 54988.4
4.6606 54955.3
4.67592 55140.9
4.69124 55468.9
4.70655 55937.2
4.72187 56472.8
4.73719 57081.7
4.7525 57676.7
4.76782 58260.7
4.78314 58865.8
4.79845 59430.5
4.81377 59933.7
4.82908 60444.9
4.8444 61018.5
4.85972 61652.4
4.87503 62355.1
4.89035 63112.3
4.90567 63967.9
4.92098 64953.4
4.9363 66112.9
4.95162 67493.4
4.96693 69113.1
4.98225 71053.2
4.99756 73480.2
5.01288 76189.4
5.0282 78988
5.04351 81842.4
5.05883 84235.2
5.07415 86216.5
5.08946 87585.4
5.10478 88241.6
5.1201 88484.8
5.13541 88129.3
5.15073 87583.6
5.16604 86742.5
5.18136 85864.4
5.19668 85074.1
5.21199 84470.9
5.22731 83928.4
5.24263 83346.4
5.25794 82565.6
5.27326 81637.9
5.28858 80547.4
5.30389 79375.5
5.31921 78265.6
5.33452 77295.2
5.34984 76535.8
5.36516 75866.6
5.38047 75139.3
5.39579 74164
5.41111 72881.2
5.42642 71197
5.44174 69241.7
5.45706 66858.7
5.47237 64266.8
5.48769 61518
5.503 58891.9
5.51832 56574.9
5.53364 54607.1
5.54895 53185.8
5.56427 52183.3
5.57959 51530.1
5.5949 51168.7
5.61022 50896.1
5.62553 50683.5
5.64085 50426.1
5.65617 50202.4
5.67148 49987
5.6868 49820.8
5.70212 49616.9
5.71743 49428.4
5.73275 49329.4
5.74807 49283.6
5.76338 49362.8
5.7787 49561.6
5.79401 49904.9
5.80933 50446.6
5.82465 51082.5
5.83996 51857.4
5.85528 52663.3
5.8706 53516.1
5.88591 54347.3
5.90123 55124.9
5.91655 55829
5.93186 56416.9
5.94718 56832.3
5.96249 57032.7
5.97781 57055
5.99313 56839
6.00844 56446.3
6.02376 55856.1
6.03908 55222.2
6.05439 54501.1
6.06971 53777.7
6.08503 53090.7
6.10034 52412.9
6.11566 51881.5
6.13097 51392.8
6.14629 51032.4
6.16161 50738.4
6.17692 50592.9
6.19224 50555.3
6.20756 50633.7
6.22287 50828.2
6.23819 51139.7
6.25351 51507.7
6.26882 51883.1
6.28414 52194.2
6.29945 52412.5
6.31477 52490
6.33009 52446.2
6.3454 52259.2
6.36072 51963
6.37604 51614.9
6.39135 51242.4
6.40667 50962.7
6.42199 50748.2
6.4373 50704
6.45262 50767
6.46793 51004.2
6.48325 51334.2
6.49857 51759.3
6.51388 52244.7
6.5292 52767.2
6.54452 53333.6
6.55983 53933
6.57515 54562.7
6.59046 55195.7
6.60578 55869.5
6.6211 56559.6
6.63641 57247.8
6.65173 57843.5
6.66705 58366.6
6.68236 58806
6.69768 59146.1
6.713 59379.7
6.72831 59479.6
6.74363 59442.7
6.75894 59318.4
6.77426 59083.8
6.78958 58787.2
6.80489 58454.2
6.82021 58117.3
6.83553 57703.9
6.85084 57240.7
6.86616 56757.1
6.88148 56277.7
6.89679 55816.5
6.91211 55322.7
6.92742 54812.6
6.94274 54332.7
6.95806 53858
6.97337 53366
6.98869 52864.8
7.00401 52379.3
7.01932 51953.9
7.03464 51533.8
7.04996 51181.6
7.06527 50873.2
7.08059 50646.4
7.0959 50461.8
7.11122 50318.8
7.12654 50194.3
7.14185 50117.8
7.15717 50087.1
7.17249 50108.2
7.1878 50154.3
7.20312 50263.5
7.21844 50424.6
7.23375 50613.9
7.24907 50821.5
7.26438 51046.5
7.2797 51309
7.29502 51561.8
7.31033 51791.4
7.32565 51986.9
7.34097 52133.1
7.35628 52196.5
7.3716 52164.8
7.38692 52085.7
7.40223 51944.8
7.41755 51766.5
7.43286 51541.3
7.44818 51248.2
7.4635 50936.5
7.47881 50597.5
7.49413 50278.1
7.50945 49975.4
7.52476 49706.9
7.54008 49404.1
7.55539 49054.3
7.57071 48670.7
7.58603 48238.1
7.60134 47792.6
7.61666 47330.8
7.63198 46882.5
7.64729 46479.2
7.66261 46110.3
7.67793 45847.5
7.69324 45675.3
7.70856 45619.1
7.72387 45690.6
7.73919 45883.2
7.75451 46175.2
7.76982 46512.1
7.78514 46825.2
7.80046 47108.1
7.81577 47316.3
7.83109 47364.7
7.84641 47281
7.86172 47063.2
7.87704 46730.9
7.89235 46345.9
7.90767 45954.9
7.92299 45582.6
7.9383 45279.6
7.95362 45060.6
7.96894 44924
7.98425 44791.9
7.99957 44683.4
8.01489 44593
8.0302 44513
8.04552 44423.1
8.06083 44316.4
8.07615 44214
8.09147 44119.2
8.10678 44035.9
8.1221 43940
8.13742 43881.4
8.15273 43841.3
8.16805 43805.9
8.18337 43749.6
8.19868 43709.7
8.214 43664
8.22931 43634.2
8.24463 43618.4
8.25995 43560.9
8.27526 43460.6
8.29058 43320.5
8.3059 43203.7
8.32121 43054.9
8.33653 42922.9
8.35185 42771.1
8.36716 42610.4
8.38248 42492.7
8.39779 42419.2
8.41311 42393
8.42843 42422
8.44374 42498.8
8.45906 42601.5
8.47438 42703.3
8.48969 42833.5
8.50501 42998
8.52032 43151.8
8.53564 43318.6
8.55096 43519.3
8.56627 43685.5
8.58159 43841.4
8.59691 43988.7
8.61222 44176.5
8.62754 44340.4
8.64286 44499.8
8.65817 44640.9
8.67349 44775.9
8.6888 44887.3
8.70412 45015.4
8.71944 45185.4
8.73475 45434.5
8.75007 45753.7
8.76539 46161.4
8.7807 46597
8.79602 46993
8.81134 47337.2
8.82665 47573.3
8.84197 47702
8.85728 47714.6
8.8726 47637.3
8.88792 47521.7
8.90323 47452.1
8.91855 47498.9
8.93387 47651.7
8.94918 47936.5
8.9645 48238.3
8.97982 48561.9
8.99513 48801.7
9.01045 48940.2
9.02576 48876
9.04108 48621.9
9.0564 48201.9
9.07171 47682.1
9.08703 47109.9
9.10235 46507
9.11766 45943.1
9.13298 45435.6
9.1483 45000.1
9.16361 44607
9.17893 44262.9
9.19424 43966.3
9.20956 43674.5
9.22488 43381.4
9.24019 43085.2
9.25551 42815.9
9.27083 42570.8
9.28614 42309.3
9.30146 42055
9.31678 41796.8
9.33209 41553.2
9.34741 41345.2
9.36272 41178.5
9.37804 41056.6
9.39336 40960.1
9.40867 40858.1
9.42399 40809.3
9.43931 40841.2
9.45462 40873.9
9.46994 40959.4
9.48525 41085.8
9.50057 41285.2
9.51589 41509.8
9.5312 41718.3
9.54652 41886.5
9.56184 41999.9
9.57715 42029.5
9.59247 41960
9.60779 41856.1
9.6231 41711
9.63842 41547.7
9.65373 41346.5
9.66905 41169.4
9.68437 41040.1
9.69968 40975.4
9.715 40928.7
9.73032 40933.2
9.74563 40971.8
9.76095 41031.3
9.77627 41094.8
9.79158 41161.4
9.8069 41217.6
9.82221 41243.8
9.83753 41261.9
9.85285 41282.6
9.86816 41290.9
9.88348 41303.9
9.8988 41356.6
9.91411 41422.2
9.92943 41514.5
9.94475 41582.5
9.96006 41663.6
9.97538 41765.3
9.99069 41917.9
10.006 42049.1
10.0213 42192.5
10.0366 42311.6
10.052 42456.3
10.0673 42614.8
10.0826 42774.2
10.0979 42959.9
10.1132 43152.7
10.1285 43421.4
10.1439 43706
10.1592 43993
10.1745 44179.2
10.1898 44317.5
10.2051 44371.7
10.2204 44374.9
10.2358 44326.4
10.2511 44256.2
10.2664 44222.4
10.2817 44251.2
10.297 44351.7
10.3123 44541.5
10.3277 44702.5
10.343 44788.5
10.3583 44778.5
10.3736 44679.9
10.3889 44504.6
10.4042 44258.1
10.4196 43977.3
10.4349 43673.4
10.4502 43369.9
10.4655 43129.3
10.4808 42947.2
10.4961 42817.8
10.5115 42723.4
10.5268 42684.6
10.5421 42693.8
10.5574 42748.4
10.5727 42824.5
10.588 42872.2
10.6033 42888.4
10.6187 42876.6
10.634 42813.2
10.6493 42670.1
10.6646 42504.5
10.6799 42293.2
10.6952 42088
10.7106 41881.7
10.7259 41712.9
10.7412 41590.7
10.7565 41484.1
10.7718 41427.2
10.7871 41399.8
10.8025 41408.1
10.8178 41434.7
10.8331 41431.3
10.8484 41366.9
10.8637 41248.7
10.879 41096.2
10.8944 40885.8
10.9097 40654
10.925 40431.8
10.9403 40201.1
10.9556 39981.5
10.9709 39797.9
10.9863 39642
11.0016 39511.1
11.0169 39388
11.0322 39248.8
11.0475 39100.4
11.0628 38963.9
11.0782 38836.4
11.0935 38711.7
11.1088 38590.9
11.1241 38486.7
11.1394 38403.6
11.1547 38324.7
11.1701 38231.8
11.1854 38179.1
11.2007 38124.7
11.216 38064.3
11.2313 38011.2
11.2466 37935.5
11.262 37856
11.2773 37799.2
11.2926 37787.4
11.3079 37766.9
11.3232 37739.9
11.3385 37681.4
11.3538 37630.8
11.3692 37577.7
11.3845 37560.6
11.3998 37543.2
11.4151 37516.5
11.4304 37494.4
11.4457 37496.5
11.4611 37493.4
11.4764 37493.2
11.4917 37505.2
11.507 37536.2
11.5223 37595.7
11.5376 37621.7
11.553 37621.2
11.5683 37592.2
11.5836 37583.5
11.5989 37558.5
11.6142 37490.1
11.6295 37395.4
11.6449 37285
11.6602 37178.8
11.6755 37075.8
11.6908 36955.3
11.7061 36857.6
11.7214 36805.8
11.7368 36782.3
11.7521 36774.9
11.7674 36801.1
11.7827 36813.3
11.798 36820.2
11.8133 36792.3
11.8287 36737.7
11.844 36673.7
11.8593 36611.8
11.8746 36537.1
11.8899 36494.7
11.9052 36425.1
11.9206 36351.2
11.9359 36312.2
11.9512 36296.8
11.9665 36278.8
11.9818 36275.3
11.9971 36273.6
12.0125 36271.3
12.0278 36249.9
12.0431 36189.2
12.0584 36132.2
12.0737 36104.7
12.089 36072
12.1044 36036.6
12.1197 35983
12.135 35975.1
12.1503 35963.4
12.1656 35963.9
12.1809 35938.5
12.1962 35940.6
12.2116 35940.9
12.2269 35951.7
12.2422 35959.7
12.2575 35989.9
12.2728 35981.7
12.2881 35994.5
12.3035 36022
12.3188 36062.9
12.3341 36064.1
12.3494 36089.2
12.3647 36126.1
12.38 36160.9
12.3954 36160.2
12.4107 36179
12.426 36202.3
12.4413 36216.8
12.4566 36221
12.4719 36234.9
12.4873 36267.2
12.5026 36268.1
12.5179 36252.5
12.5332 36238.3
12.5485 36230.7
12.5638 36231.2
12.5792 36234.1
12.5945 36274.9
12.6098 36321.7
12.6251 36372.9
12.6404 36427.6
12.6557 36477.1
12.6711 36534.9
12.6864 36530.2
12.7017 36501.4
12.717 36474.8
12.7323 36469.8
12.7476 36479.1
12.763 36492.4
12.7783 36505.1
12.7936 36553.7
12.8089 36627.4
12.8242 36711.2
12.8395 36757
12.8549 36787.5
12.8702 36743.7
12.8855 36655.8
12.9008 36556.7
12.9161 36484.2
12.9314 36403.5
12.9467 36321.3
12.9621 36281.6
12.9774 36255.3
12.9927 36238.2
13.008 36220
13.0233 36197.4
13.0386 36176.8
13.054 36183.4
13.0693 36200.4
13.0846 36178.3
13.0999 36154.6
13.1152 36173.5
13.1305 36176.7
13.1459 36152.2
13.1612 36144.2
13.1765 36110.6
13.1918 36094.5
13.2071 36064.7
13.2224 36067.8
13.2378 36068.7
13.2531 36061.9
13.2684 36082.8
13.2837 36068.3
13.299 36061.1
13.3143 36082.9
13.3297 36107
13.345 36147.3
13.3603 36194.1
13.3756 36258
13.3909 36363.7
13.4062 36488.4
13.4216 36649.8
13.4369 36842.9
13.4522 37014.1
13.4675 37189.4
13.4828 37337
13.4981 37454.8
13.5135 37510.2
13.5288 37547.4
13.5441 37587.9
13.5594 37635.5
13.5747 37676
13.59 37687
13.6054 37666.4
13.6207 37603
13.636 37477.6
13.6513 37285.6
13.6666 37080.7
13.6819 36868.8
13.6973 36685.5
13.7126 36540.4
13.7279 36384.1
13.7432 36247.4
13.7585 36139.7
13.7738 36046.6
13.7891 35972.8
13.8045 35902.5
13.8198 35841.6
13.8351 35816.2
13.8504 35773.6
13.8657 35760.8
13.881 35750.6
13.8964 35747.1
13.9117 35799.3
13.927 35806.7
13.9423 35809.9
13.9576 35858.2
13.9729 35842.4
13.9883 35778.5
14.0036 35713.9
14.0189 35638.6
14.0342 35519.3
14.0495 35379.2
14.0648 35255.2
14.0802 35124.2
14.0955 34996.8
14.1108 34875.1
14.1261 34748.1
14.1414 34683.3
14.1567 34611.3
14.1721 34546.7
14.1874 34491.6
14.2027 34435.6
14.218 34403.4
14.2333 34397
14.2486 34374.2
14.264 34329.9
14.2793 34305.2
14.2946 34262.3
14.3099 34213.6
14.3252 34173.9
14.3405 34139.9
14.3559 34106.6
14.3712 34079.2
14.3865 34066.3
14.4018 34040.9
14.4171 34025.2
14.4324 33996.4
14.4478 33953.8
14.4631 33885.9
14.4784 33835.9
14.4937 33844.7
14.509 33896.1
14.5243 33916
14.5397 33923.3
14.555 33933.2
14.5703 33947.8
14.5856 33944.8
14.6009 33922.6
14.6162 33894.6
14.6315 33849.4
14.6469 33787.3
14.6622 33773.3
14.6775 33758.3
14.6928 33740.9
14.7081 33699.1
14.7234 33649.6
14.7388 33597.4
14.7541 33550.2
14.7694 33510.4
14.7847 33473.9
14.8 33437.1
14.8153 33401.2
14.8307 33381.2
14.846 33357.2
14.8613 33321.6
14.8766 33291.7
14.8919 33238.9
14.9072 33200.3
14.9226 33185.8
14.9379 33145.8
14.9532 33101.7
14.9685 33095.7
14.9838 33092.5
14.9991 33094.3
15.0145 33084.4
15.0298 33083.6
15.0451 33096.2
15.0604 33085.3
15.0757 33087.4
15.091 33068.9
15.1064 33061.3
15.1217 33074.4
15.137 33068.6
15.1523 33086.7
15.1676 33132.3
15.1829 33161.9
15.1983 33199.8
15.2136 33228.8
15.2289 33263.5
15.2442 33294.4
15.2595 33338.3
15.2748 33370.5
15.2902 33398.4
15.3055 33437.9
15.3208 33463.7
15.3361 33493.1
15.3514 33546.1
15.3667 33573.3
15.382 33545.4
15.3974 33533.1
15.4127 33548.6
15.428 33509.2
15.4433 33439
15.4586 33367.7
15.4739 33327.9
15.4893 33299.6
15.5046 33282.5
15.5199 33265.8
15.5352 33232.2
15.5505 33197.1
15.5658 33178.2
15.5812 33156.9
15.5965 33148
15.6118 33135.2
15.6271 33123.2
15.6424 33098.2
15.6577 33085.7
15.6731 33092.9
15.6884 33092.4
15.7037 33071.1
15.719 33055.3
15.7343 33022.5
15.7496 32985.8
15.765 32935.9
15.7803 32903.6
15.7956 32884.8
15.8109 32858.5
15.8262 32793.7
15.8415 32726.4
15.8569 32659.4
15.8722 32607.7
15.8875 32567.5
15.9028 32505.2
15.9181 32463.1
15.9334 32411.1
15.9488 32366.7
15.9641 32356.1
15.9794 32366.3
15.9947 32368.7
16.01 32297.7
16.0253 32263.2
16.0407 32239.5
16.056 32217
16.0713 32172.3
16.0866 32138.5
16.1019 32160.1
16.1172 32167.9
16.1326 32163.4
16.1479 32159.9
16.1632 32174.8
16.1785 32165.6
16.1938 32155.4
16.2091 32167.9
16.2244 32184.4
16.2398 32179.9
16.2551 32161
16.2704 32161.8
16.2857 32158.7
16.301 32146.9
16.3163 32162.5
16.3317 32159.5
16.347 32161.8
16.3623 32141.7
16.3776 32118.8
16.3929 32096
16.4082 32102.6
16.4236 32084.9
16.4389 32040.2
16.4542 31999.3
16.4695 31956.1
16.4848 31908
16.5001 31875.5
16.5155 31858.6
16.5308 31844.7
16.5461 31839
16.5614 31825.9
16.5767 31792.9
16.592 31718
16.6074 31634
16.6227 31599.5
16.638 31588.6
16.6533 31568.7
16.6686 31518.6
16.6839 31464.3
16.6993 31429.8
16.7146 31395
16.7299 31386.5
16.7452 31393
16.7605 31359.4
16.7758 31316.5
16.7912 31262.2
16.8065 31236.4
16.8218 31213.2
16.8371 31210.6
16.8524 31193.2
16.8677 31183.6
16.8831 31182.1
16.8984 31176.1
16.9137 31148.2
16.929 31103.4
16.9443 31093.9
16.9596 31111.5
16.9749 31142.4
16.9903 31122.5
17.0056 31103.9
17.0209 31058.4
17.0362 31020.1
17.0515 30978.6
17.0668 30925.6
17.0822 30923.7
17.0975 30907.3
17.1128 30872.8
17.1281 30833.3
17.1434 30820.6
17.1587 30822.5
17.1741 30804.3
17.1894 30769
17.2047 30728.5
17.22 30714.5
17.2353 30714.9
17.2506 30712.1
17.266 30657.7
17.2813 30630.2
17.2966 30643.8
17.3119 30621.9
17.3272 30603.2
17.3425 30607.8
17.3579 30579.4
17.3732 30522.1
17.3885 30524.2
17.4038 30546.6
17.4191 30564.9
17.4344 30562.1
17.4498 30558.6
17.4651 30576.7
17.4804 30573.9
17.4957 30552.2
17.511 30550.2
17.5263 30558
17.5417 30534.1
17.557 30512.9
17.5723 30511
17.5876 30518.1
17.6029 30552.1
17.6182 30571.6
17.6336 30571.2
17.6489 30578
17.6642 30594.4
17.6795 30590.2
17.6948 30602.1
17.7101 30584.8
17.7255 30570.3
17.7408 30596.3
17.7561 30596
17.7714 30553
17.7867 30542.5
17.802 30564.2
17.8173 30544.7
17.8327 30493.4
17.848 30479.9
17.8633 30484.1
17.8786 30480.2
17.8939 30475.9
17.9092 30483.1
17.9246 30470.2
17.9399 30457
17.9552 30457.4
17.9705 30476.7
17.9858 30458.6
18.0011 30417
18.0165 30408.9
18.0318 30398.4
18.0471 30376.4
18.0624 30360.6
18.0777 30332.7
18.093 30341
18.1084 30378.4
18.1237 30387.7
18.139 30348.8
18.1543 30321
18.1696 30341.6
18.1849 30320.9
18.2003 30301.2
18.2156 30310.9
18.2309 30289.7
18.2462 30272.8
18.2615 30283.3
18.2768 30300.1
18.2922 30302.6
18.3075 30327.4
18.3228 30353.2
18.3381 30361.2
18.3534 30377.1
18.3687 30442.1
18.3841 30486.2
18.3994 30486.6
18.4147 30494.5
18.43 30488.5
18.4453 30438.7
18.4606 30416.4
18.476 30415.9
18.4913 30370
18.5066 30331.4
18.5219 30332.2
18.5372 30317.4
18.5525 30284.9
18.5679 30259.3
18.5832 30240.7
18.5985 30242.9
18.6138 30241.3
18.6291 30219.9
18.6444 30178.5
18.6597 30117.4
18.6751 30062.6
18.6904 30041
18.7057 30024.1
18.721 29989.8
18.7363 29972.8
18.7516 30001.7
18.767 30031.8
18.7823 29979.7
18.7976 29906.8
18.8129 29894.4
18.8282 29909.8
18.8435 29874.4
18.8589 29835.3
18.8742 29828.1
18.8895 29786.5
18.9048 29754.2
18.9201 29720.3
18.9354 29701.2
18.9508 29690.8
18.9661 29668.9
18.9814 29628.5
18.9967 29600
19.012 29556
19.0273 29549.3
19.0427 29537.6
19.058 29529.3
19.0733 29528.6
19.0886 29482.4
19.1039 29450.5
19.1192 29408
19.1346 29402.8
19.1499 29409.7
19.1652 29420.7
19.1805 29413.2
19.1958 29439
19.2111 29427.2
19.2265 29428.1
19.2418 29434.5
19.2571 29378.6
19.2724 29334.2
19.2877 29329.7
19.303 29304.1
19.3184 29251.9
19.3337 29221.8
19.349 29192.2
19.3643 29153.8
19.3796 29148.7
19.3949 29154.2
19.4102 29145.4
19.4256 29151.6
19.4409 29135.1
19.4562 29081.7
19.4715 29040.4
19.4868 29024.9
19.5021 29007.3
19.5175 29005.8
19.5328 29003.4
19.5481 28992.6
19.5634 28987.7
19.5787 28976.3
19.594 28952.6
19.6094 28949.6
19.6247 28942.3
19.64 28905
19.6553 28882
19.6706 28859.3
19.6859 28863.4
19.7013 28843.9
19.7166 28818.3
19.7319 28824.6
19.7472 28818.8
19.7625 28802.8
19.7778 28777.8
19.7932 28775.8
19.8085 28755.4
19.8238 28766
19.8391 28767.6
19.8544 28720.3
19.8697 28678
19.8851 28694
19.9004 28704.8
19.9157 28673.8
19.931 28651.7
19.9463 28666.5
19.9616 28701.4
19.977 28701.3
19.9923 28679
20.0076 28683.7
20.0229 28666.5
20.0382 28633.8
20.0535 28589.6
20.0689 28554
20.0842 28548.6
20.0995 28569.1
20.1148 28563
20.1301 28549
20.1454 28544.5
20.1608 28555.2
20.1761 28552.2
20.1914 28487.9
20.2067 28443
20.222 28432.6
20.2373 28468.1
20.2526 28477.5
20.268 28465.9
20.2833 28469.7
20.2986 28476
20.3139 28462.5
20.3292 28471.2
20.3445 28447.1
20.3599 28451.2
20.3752 28458.5
20.3905 28466.8
20.4058 28493.4
20.4211 28489
20.4364 28478
20.4518 28493
20.4671 28487
20.4824 28494.5
20.4977 28489.3
20.513 28438.9
20.5283 28449.6
20.5437 28430.4
20.559 28448.8
20.5743 28423.1
20.5896 28431.5
20.6049 28439.4
20.6202 28393.1
20.6356 28335.4
20.6509 28319.4
20.6662 28329.3
20.6815 28348.8
20.6968 28371.6
20.7121 28315.1
20.7275 28295.1
20.7428 28357
20.7581 28341
20.7734 28313.6
20.7887 28286.9
20.804 28250.6
20.8194 28256.2
20.8347 28265.4
20.85 28294.7
20.8653 28278.1
20.8806 28288.1
20.8959 28270.1
20.9113 28238.7
20.9266 28232.1
20.9419 28227.8
20.9572 28216.5
20.9725 28235.2
20.9878 28228.1
21.0031 28194.3
21.0185 28209.8
21.0338 28231.1
21.0491 28228.6
21.0644 28234.5
21.0797 28224.3
21.095 28225.7
21.1104 28244.1
21.1257 28237.3
21.141 28199.6
21.1563 28182.2
21.1716 28217.5
21.1869 28250
21.2023 28256.6
21.2176 28217.8
21.2329 28197.8
21.2482 28181.7
21.2635 28151.7
21.2788 28147.8
21.2942 28174.5
21.3095 28179.9
21.3248 28180.3
21.3401 28180.7
21.3554 28191.5
21.3707 28131.3
21.3861 28132
21.4014 28104
21.4167 28107.5
21.432 28149.3
21.4473 28191.5
21.4626 28126.8
21.478 28092.8
21.4933 28128.8
21.5086 28140.6
21.5239 28127.3
21.5392 28144.7
21.5545 28129.2
21.5699 28115.2
21.5852 28112.4
21.6005 28134.3
21.6158 28137.3
21.6311 28141
21.6464 28125.4
21.6618 28082.6
21.6771 28103.1
21.6924 28109.5
21.7077 28134
21.723 28116.5
21.7383 28103.8
21.7537 28105.6
21.769 28100.1
21.7843 28116.1
21.7996 28076.7
21.8149 28101
21.8302 28079.2
21.8455 28081.5
21.8609 28101.6
21.8762 28104.2
21.8915 28106.3
21.9068 28113.1
21.9221 28147.8
21.9374 28170.3
21.9528 28180.1
21.9681 28171.8
21.9834 28176.5
21.9987 28126.9
22.014 28123.1
22.0293 28194.3
22.0447 28275
22.06 28268.3
22.0753 28233.9
22.0906 28226.7
22.1059 28214.8
22.1212 28236.2
22.1366 28274.1
22.1519 28305.4
22.1672 28272.8
22.1825 28252.1
22.1978 28257.9
22.2131 28234.7
22.2285 28256.2
22.2438 28244.3
22.2591 28247.9
22.2744 28254.2
22.2897 28249.7
22.305 28276.3
22.3204 28332.4
22.3357 28352.6
22.351 28299.3
22.3663 28268
22.3816 28319.1
22.3969 28361.7
22.4123 28339.4
22.4276 28332
22.4429 28330.1
22.4582 28326.7
22.4735 28337.1
22.4888 28344.9
22.5042 28294.9
22.5195 28264
22.5348 28289.1
22.5501 28342.4
22.5654 28349.6
22.5807 28342.3
22.596 28328
22.6114 28369
22.6267 28324.9
22.642 28333.1
22.6573 28354.8
22.6726 28307.8
22.6879 28295.3
22.7033 28278
22.7186 28290.1
22.7339 28321.5
22.7492 28319.5
22.7645 28322.1
22.7798 28343.6
22.7952 28353
22.8105 28375
22.8258 28398.6
22.8411 28351.1
22.8564 28351.9
22.8717 28389.1
22.8871 28364.6
22.9024 28370
22.9177 28351.6
22.933 28326.6
22.9483 28374
22.9636 28411.7
22.979 28417.2
22.9943 28356.4
