# xPDFsuite Configuration #
[PDF]
wavelength = 0.1
dataformat = QA
inputfile = B3_Bronze-3nm_ss_36.chi
backgroundfile = B3_Li-bkg_ss.chi
mode = xray
bgscale = 0.98705
composition = Ti O2
outputtype = iq
qmaxinst = 23.0
qmin = 0.1
qmax = 23.0
rmax = 30.0
rmin = 0.0
rstep = 0.01
rpoly = 0.9

[Misc]
inputdir = E:/Beamtime/PETRA-III_September-2019/BeamData/processed/Run1/B3/chi/chi_w_sigmas/chi_scaled
savedir = E:/Beamtime/PETRA-III_September-2019/BeamData/processed/Run1/B3
backgroundfilefull = E:/Beamtime/PETRA-III_September-2019/BeamData/processed/Run1/B3/chi/chi_w_sigmas/chi_scaled/B3_Li-bkg_ss.chi

#### start data
#S 1
#L Q($\AA^{-1}$)  intensity(a.u.)
0.111649 0
0.126965 0
0.142282 0
0.157598 0
0.172914 0
0.188231 0
0.203547 0
0.218864 0
0.23418 0
0.249496 0
0.264813 0
0.280129 0
0.295445 0
0.310762 0
0.326078 0
0.341394 0
0.356711 0
0.372027 0
0.387343 0
0.40266 0
0.417976 0
0.433292 0
0.448609 0
0.463925 0
0.479241 0
0.494558 0
0.509874 0
0.525191 0
0.540507 0
0.555823 0
0.57114 0
0.586456 0
0.601772 0
0.617089 0
0.632405 0
0.647721 0
0.663038 0
0.678354 0
0.69367 0
0.708987 0
0.724303 0
0.739619 0
0.754936 0
0.770252 0
0.785568 0
0.800885 0
0.816201 0
0.831518 0
0.846834 0
0.86215 1.3441
0.877467 96501.3
0.892783 95609.1
0.908099 95025.3
0.923416 95059.5
0.938732 95291.1
0.954048 95676.2
0.969365 95768.8
0.984681 95437.7
0.999997 94161.1
1.01531 92381.9
1.03063 89016.9
1.04595 84777.7
1.06126 79338.1
1.07658 72753.3
1.0919 66036.2
1.10721 58284.9
1.12253 51116.1
1.13784 43722.7
1.15316 36826.4
1.16848 30606.1
1.18379 24666.1
1.19911 19834.3
1.21443 15301.4
1.22974 11632.6
1.24506 8756.58
1.26038 6384.2
1.27569 4864.65
1.29101 3852.04
1.30632 3498.89
1.32164 3763.43
1.33696 4605.47
1.35227 5823.61
1.36759 7468.83
1.38291 9295.09
1.39822 11363.3
1.41354 13292.9
1.42886 14966.9
1.44417 16512.5
1.45949 17919.1
1.4748 19258.6
1.49012 20699
1.50544 22471
1.52075 24770.4
1.53607 27914.6
1.55139 32301.1
1.5667 37617
1.58202 44920.5
1.59733 53389.1
1.61265 63658.4
1.62797 75440.3
1.64328 87882.3
1.6586 101842
1.67392 115279
1.68923 128838
1.70455 141076
1.71987 151605
1.73518 160530
1.7505 167223
1.76581 172560
1.78113 175557
1.79645 176808
1.81176 176175
1.82708 173916
1.8424 170052
1.85771 165260
1.87303 159569
1.88835 153565
1.90366 147812
1.91898 142361
1.93429 137777
1.94961 134158
1.96493 131641
1.98024 130156
1.99556 129204
2.01088 128669
2.02619 127829
2.04151 126348
2.05683 123826
2.07214 120376
2.08746 116192
2.10277 111171
2.11809 105918
2.13341 100133
2.14872 94540.8
2.16404 89173.3
2.17936 84203.2
2.19467 80011.8
2.20999 76366.9
2.22531 73677.5
2.24062 71501.1
2.25594 69891
2.27125 68650
2.28657 67508.2
2.30189 66485.5
2.3172 65303.3
2.33252 64049.9
2.34784 62604.7
2.36315 61175.5
2.37847 59789.4
2.39379 58308.6
2.4091 57270.9
2.42442 56364.2
2.43973 56013.7
2.45505 55815
2.47037 55757.5
2.48568 55908.2
2.501 56060.7
2.51632 56296.5
2.53163 56290.8
2.54695 56158.3
2.56226 55968.4
2.57758 55873.7
2.5929 55718.2
2.60821 55692.4
2.62353 55613.1
2.63885 55589.4
2.65416 55607.9
2.66948 55638.1
2.6848 55679.5
2.70011 55719.3
2.71543 55811.4
2.73074 55977.4
2.74606 56340
2.76138 56899.8
2.77669 57773.1
2.79201 59029
2.80733 60720.4
2.82264 63108.6
2.83796 66265.5
2.85328 70270.9
2.86859 75389.7
2.88391 81387.2
2.89922 88695
2.91454 96906.1
2.92986 105944
2.94517 115502
2.96049 124972
2.97581 134419
2.99112 142638
3.00644 149778
3.02176 154896
3.03707 157956
3.05239 158871
3.0677 157605
3.08302 154422
3.09834 149650
3.11365 143951
3.12897 137766
3.14429 131702
3.1596 126041
3.17492 121481
3.19024 117715
3.20555 115173
3.22087 113469
3.23618 112311
3.2515 111389
3.26682 110317
3.28213 109006
3.29745 107016
3.31277 104548
3.32808 101456
3.3434 97921.4
3.35872 94312.4
3.37403 90461.6
3.38935 86966.1
3.40466 83655.2
3.41998 80690.7
3.4353 78182.1
3.45061 76030.2
3.46593 74441.4
3.48125 73117.8
3.49656 72209.3
3.51188 71563.7
3.52719 71242.6
3.54251 71273.7
3.55783 71500.6
3.57314 71924.6
3.58846 72525.7
3.60378 73215.5
3.61909 74123.9
3.63441 75099.2
3.64973 76146.6
3.66504 77135.4
3.68036 78044.6
3.69567 78885.7
3.71099 79570.6
3.72631 80157.7
3.74162 80625.6
3.75694 81111.2
3.77226 81580.9
3.78757 82142.4
3.80289 82889.3
3.81821 83819.3
3.83352 84982.9
3.84884 86429.3
3.86415 87961.5
3.87947 89487.8
3.89479 90805.7
3.9101 91804
3.92542 92420.6
3.94074 92550.3
3.95605 92154.4
3.97137 91348.5
3.98669 90061.3
4.002 88624.3
4.01732 87039.4
4.03263 85537.5
4.04795 84258.2
4.06327 83321.3
4.07858 82883.9
4.0939 82918.9
4.10922 83354.7
4.12453 84085.3
4.13985 85058.1
4.15517 86037.7
4.17048 86864.7
4.1858 87430.8
4.20111 87680
4.21643 87639.9
4.23175 87219.1
4.24706 86473.3
4.26238 85499.6
4.2777 84376.4
4.29301 83257.4
4.30833 82149.8
4.32365 81216.8
4.33896 80515.9
4.35428 80082
4.36959 79815.7
4.38491 79786.5
4.40023 79843.7
4.41554 79968.2
4.43086 80068.9
4.44618 80058.3
4.46149 79879.6
4.47681 79455.2
4.49213 78775.6
4.50744 77828.8
4.52276 76655.8
4.53807 75202.2
4.55339 73589.7
4.56871 71810.3
4.58402 69934.3
4.59934 67942.3
4.61466 66010.4
4.62997 64169.8
4.64529 62429.2
4.6606 60832.6
4.67592 59371.6
4.69124 58143.5
4.70655 57093.6
4.72187 56252.2
4.73719 55656.4
4.7525 55334.5
4.76782 55271.2
4.78314 55525.8
4.79845 56028.9
4.81377 56813.7
4.82908 57851.4
4.8444 59146.4
4.85972 60657.5
4.87503 62335.6
4.89035 64156.5
4.90567 66042.6
4.92098 67983.5
4.9363 69954.2
4.95162 71986.5
4.96693 74052.3
4.98225 76288.4
4.99756 78845.7
5.01288 81513.7
5.0282 84138.1
5.04351 86743.4
5.05883 88762.4
5.07415 90226.6
5.08946 90973.7
5.10478 90888.7
5.1201 90228
5.13541 88813.3
5.15073 87049.2
5.16604 84941.2
5.18136 82766
5.19668 80762.5
5.21199 79090.9
5.22731 77723
5.24263 76715.7
5.25794 75873.7
5.27326 75274.3
5.28858 74861.2
5.30389 74754
5.31921 75019
5.33452 75614.3
5.34984 76496.6
5.36516 77387.6
5.38047 78084.5
5.39579 78301.6
5.41111 77927.7
5.42642 76876.2
5.44174 75181
5.45706 72850.7
5.47237 70012.9
5.48769 66849.2
5.503 63571.4
5.51832 60568.5
5.53364 57839.6
5.54895 55651
5.56427 53852.7
5.57959 52438.6
5.5949 51330.1
5.61022 50397.8
5.62553 49656.4
5.64085 48949.8
5.65617 48282.2
5.67148 47674.6
5.6868 47163.5
5.70212 46718.2
5.71743 46326.7
5.73275 46074.4
5.74807 45947.6
5.76338 45999
5.7787 46229.4
5.79401 46656.5
5.80933 47280.9
5.82465 48073.3
5.83996 48997.1
5.85528 49998.5
5.8706 51071.2
5.88591 52165.7
5.90123 53204.2
5.91655 54152
5.93186 54962.6
5.94718 55585.5
5.96249 56001.7
5.97781 56271.6
5.99313 56361.6
6.00844 56307.1
6.02376 56059.1
6.03908 55735.2
6.05439 55377.6
6.06971 55050.3
6.08503 54745.9
6.10034 54467.6
6.11566 54268.7
6.13097 54128.7
6.14629 54059.2
6.16161 54046.7
6.17692 54138.3
6.19224 54284.9
6.20756 54476.5
6.22287 54725.5
6.23819 55026.5
6.25351 55329.5
6.26882 55565.4
6.28414 55647.5
6.29945 55557.6
6.31477 55271.5
6.33009 54807
6.3454 54149.2
6.36072 53406.9
6.37604 52571
6.39135 51766.6
6.40667 51012.2
6.42199 50387.6
6.4373 49908.8
6.45262 49532.1
6.46793 49315.2
6.48325 49161.9
6.49857 49077.2
6.51388 49039.8
6.5292 49016.5
6.54452 48978.9
6.55983 48928.2
6.57515 48917.2
6.59046 48892.8
6.60578 48943.1
6.6211 49035.2
6.63641 49211.1
6.65173 49395.8
6.66705 49668.9
6.68236 50003.8
6.69768 50400.9
6.713 50851.3
6.72831 51313
6.74363 51770.7
6.75894 52237
6.77426 52719.7
6.78958 53234.3
6.80489 53710.9
6.82021 54183.9
6.83553 54612.4
6.85084 54934.1
6.86616 55186.1
6.88148 55322.7
6.89679 55426.3
6.91211 55422.8
6.92742 55360
6.94274 55251.8
6.95806 55101.2
6.97337 54910.6
6.98869 54665.9
7.00401 54399.8
7.01932 54140.7
7.03464 53809.7
7.04996 53475.3
7.06527 53106.7
7.08059 52751.3
7.0959 52405.8
7.11122 52030.3
7.12654 51629.4
7.14185 51187.3
7.15717 50787.5
7.17249 50410.7
7.1878 50051.1
7.20312 49733.6
7.21844 49468.2
7.23375 49224.4
7.24907 48985.9
7.26438 48798.9
7.2797 48638.5
7.29502 48492.4
7.31033 48327.3
7.32565 48167.8
7.34097 48034.3
7.35628 47923.9
7.3716 47768.7
7.38692 47633.9
7.40223 47558.2
7.41755 47582.9
7.43286 47686
7.44818 47815.4
7.4635 47984.5
7.47881 48193.6
7.49413 48440.4
7.50945 48667.5
7.52476 48853.2
7.54008 48951.4
7.55539 48975.5
7.57071 48920
7.58603 48793.6
7.60134 48586.2
7.61666 48302.6
7.63198 48004.5
7.64729 47698.2
7.66261 47410.1
7.67793 47204.3
7.69324 47119.1
7.70856 47146.3
7.72387 47264.6
7.73919 47506.2
7.75451 47845.9
7.76982 48252.1
7.78514 48643.7
7.80046 49011.2
7.81577 49241.5
7.83109 49325
7.84641 49242.4
7.86172 49012
7.87704 48625.4
7.89235 48114.4
7.90767 47563.9
7.92299 47009.2
7.9383 46494.3
7.95362 46015.5
7.96894 45586.6
7.98425 45194.6
7.99957 44818
8.01489 44487.6
8.0302 44169.9
8.04552 43876.7
8.06083 43592.7
8.07615 43373.4
8.09147 43193.4
8.10678 43093.2
8.1221 43024.7
8.13742 43004.1
8.15273 43051.4
8.16805 43173.8
8.18337 43340.7
8.19868 43554.2
8.214 43788.1
8.22931 44021.8
8.24463 44278.6
8.25995 44475.9
8.27526 44631.3
8.29058 44713.6
8.3059 44777.5
8.32121 44783.1
8.33653 44750.9
8.35185 44671.6
8.36716 44556.3
8.38248 44441.8
8.39779 44342.8
8.41311 44236.6
8.42843 44136.7
8.44374 44052
8.45906 43916.7
8.47438 43767.6
8.48969 43605.7
8.50501 43455.5
8.52032 43265.2
8.53564 43084.3
8.55096 42919.3
8.56627 42735.7
8.58159 42591.7
8.59691 42449.1
8.61222 42350.1
8.62754 42264.2
8.64286 42239
8.65817 42264
8.67349 42314.6
8.6888 42407.3
8.70412 42575.1
8.71944 42889.6
8.73475 43334.7
8.75007 43894.8
8.76539 44565
8.7807 45319.7
8.79602 46067
8.81134 46778.5
8.82665 47387.7
8.84197 47867.1
8.85728 48170
8.8726 48316.1
8.88792 48357
8.90323 48368.8
8.91855 48389
8.93387 48447.9
8.94918 48621.7
8.9645 48792.4
8.97982 48941.4
8.99513 48978.2
9.01045 48935
9.02576 48730.4
9.04108 48344.4
9.0564 47808.2
9.07171 47121.6
9.08703 46382.3
9.10235 45620.6
9.11766 44896
9.13298 44223.4
9.1483 43604
9.16361 43093.1
9.17893 42668.6
9.19424 42303
9.20956 41978.5
9.22488 41656.1
9.24019 41348.3
9.25551 41067.4
9.27083 40844.2
9.28614 40629.8
9.30146 40412.9
9.31678 40200.7
9.33209 40009.6
9.34741 39862.5
9.36272 39740.6
9.37804 39652.3
9.39336 39596.5
9.40867 39560.2
9.42399 39573
9.43931 39619.5
9.45462 39714.2
9.46994 39851.4
9.48525 39999
9.50057 40185.7
9.51589 40376.3
9.5312 40538.5
9.54652 40641.1
9.56184 40681.5
9.57715 40654.4
9.59247 40532
9.60779 40335.5
9.6231 40049.2
9.63842 39751.4
9.65373 39446.6
9.66905 39157.3
9.68437 38893.2
9.69968 38689.5
9.715 38546.6
9.73032 38474.9
9.74563 38441.6
9.76095 38442.5
9.77627 38471.6
9.79158 38551
9.8069 38625.6
9.82221 38670.9
9.83753 38710.5
9.85285 38739.2
9.86816 38785.7
9.88348 38847.4
9.8988 38953.7
9.91411 39052.5
9.92943 39191.1
9.94475 39348.6
9.96006 39552
9.97538 39746.9
9.99069 39964.9
10.006 40167
10.0213 40390.6
10.0366 40608.9
10.052 40859.6
10.0673 41108.8
10.0826 41348.3
10.0979 41623.5
10.1132 41881.4
10.1285 42183
10.1439 42500.9
10.1592 42831.1
10.1745 43064.2
10.1898 43209
10.2051 43269
10.2204 43267.6
10.2358 43235.5
10.2511 43227.7
10.2664 43248.6
10.2817 43351.3
10.297 43516.7
10.3123 43761.4
10.3277 43973
10.343 44151.6
10.3583 44207
10.3736 44188.2
10.3889 44071.9
10.4042 43919.5
10.4196 43674.6
10.4349 43385.6
10.4502 43088.5
10.4655 42866.1
10.4808 42684.4
10.4961 42540
10.5115 42437.8
10.5268 42363.6
10.5421 42390.8
10.5574 42467.3
10.5727 42559.1
10.588 42643.1
10.6033 42707.7
10.6187 42763
10.634 42774.1
10.6493 42733
10.6646 42620
10.6799 42469.8
10.6952 42316.4
10.7106 42172.5
10.7259 42025.3
10.7412 41893.7
10.7565 41801.9
10.7718 41785.5
10.7871 41774.9
10.8025 41787.9
10.8178 41787.4
10.8331 41761
10.8484 41691.4
10.8637 41561.2
10.879 41379.8
10.8944 41149
10.9097 40870.8
10.925 40597.8
10.9403 40302.5
10.9556 40022.7
10.9709 39786.7
10.9863 39558.5
11.0016 39373.7
11.0169 39192.3
11.0322 39009.7
11.0475 38808.8
11.0628 38601.4
11.0782 38385.1
11.0935 38144.5
11.1088 37932.5
11.1241 37744.4
11.1394 37585.4
11.1547 37422.5
11.1701 37249.2
11.1854 37079.7
11.2007 36929
11.216 36774.5
11.2313 36649.6
11.2466 36503.2
11.262 36368.5
11.2773 36282.5
11.2926 36236.2
11.3079 36190.7
11.3232 36149.2
11.3385 36089.6
11.3538 36015.5
11.3692 35984.1
11.3845 35978.7
11.3998 35980.4
11.4151 35957.3
11.4304 35932.2
11.4457 35926.7
11.4611 35935.2
11.4764 35972.4
11.4917 36021.8
11.507 36064.4
11.5223 36113
11.5376 36145.6
11.553 36176.9
11.5683 36208.4
11.5836 36223.6
11.5989 36228
11.6142 36236.1
11.6295 36225.8
11.6449 36172.3
11.6602 36084.3
11.6755 35987.9
11.6908 35930.7
11.7061 35913.9
11.7214 35895.2
11.7368 35868
11.7521 35871.8
11.7674 35921.8
11.7827 35968.2
11.798 36012
11.8133 36027.3
11.8287 35978.8
11.844 35939.8
11.8593 35878.4
11.8746 35821.2
11.8899 35792.3
11.9052 35774.6
11.9206 35768.1
11.9359 35753.4
11.9512 35774.5
11.9665 35776.6
11.9818 35794
11.9971 35802.7
12.0125 35823.9
12.0278 35842.2
12.0431 35852.6
12.0584 35855.2
12.0737 35826.2
12.089 35777.3
12.1044 35735
12.1197 35701.6
12.135 35678.6
12.1503 35676.4
12.1656 35649.8
12.1809 35638.2
12.1962 35620.3
12.2116 35586
12.2269 35570.9
12.2422 35551
12.2575 35553.1
12.2728 35529.4
12.2881 35512.4
12.3035 35510.5
12.3188 35537.8
12.3341 35512.8
12.3494 35475.6
12.3647 35428.6
12.38 35388.5
12.3954 35346.7
12.4107 35308.3
12.426 35279.7
12.4413 35248
12.4566 35238.2
12.4719 35210.3
12.4873 35162.6
12.5026 35093.3
12.5179 35043.3
12.5332 35007.2
12.5485 34997.7
12.5638 34977.3
12.5792 34957.9
12.5945 34937.1
12.6098 34923.6
12.6251 34932.6
12.6404 34953.3
12.6557 34973
12.6711 35008.5
12.6864 35023.3
12.7017 35020.2
12.717 35009.4
12.7323 35008.3
12.7476 35028.6
12.763 35077.6
12.7783 35140.2
12.7936 35226.1
12.8089 35321.2
12.8242 35403.7
12.8395 35483.8
12.8549 35547.8
12.8702 35532.2
12.8855 35482.5
12.9008 35422.7
12.9161 35335.3
12.9314 35241.2
12.9467 35142.3
12.9621 35112.6
12.9774 35083.2
12.9927 35042.9
13.008 35011
13.0233 34980.4
13.0386 34958.3
13.054 34937.8
13.0693 34919.2
13.0846 34896.5
13.0999 34901.3
13.1152 34895.6
13.1305 34882.3
13.1459 34865.3
13.1612 34867.7
13.1765 34841
13.1918 34826.8
13.2071 34836.9
13.2224 34867.7
13.2378 34877
13.2531 34880.6
13.2684 34909.3
13.2837 34914.8
13.299 34942.5
13.3143 34991.8
13.3297 35024.6
13.345 35058.7
13.3603 35144.7
13.3756 35260.7
13.3909 35419.3
13.4062 35612.4
13.4216 35821.4
13.4369 36019.5
13.4522 36213.4
13.4675 36394.1
13.4828 36530.1
13.4981 36666.6
13.5135 36779.1
13.5288 36848.8
13.5441 36923
13.5594 37006.6
13.5747 37070.1
13.59 37089
13.6054 37062.3
13.6207 36985.7
13.636 36845.7
13.6513 36664.8
13.6666 36476.6
13.6819 36271.2
13.6973 36044.9
13.7126 35842.6
13.7279 35694.5
13.7432 35569.1
13.7585 35445.3
13.7738 35329.8
13.7891 35238.1
13.8045 35160.5
13.8198 35093.3
13.8351 35057.1
13.8504 35040.1
13.8657 35043.5
13.881 35037.1
13.8964 35047.2
13.9117 35106.2
13.927 35120.3
13.9423 35118
13.9576 35135.6
13.9729 35120.9
13.9883 35090.7
14.0036 35026.9
14.0189 34938.1
14.0342 34812.9
14.0495 34692.1
14.0648 34555.2
14.0802 34418.4
14.0955 34280.9
14.1108 34143.8
14.1261 33977.4
14.1414 33860.6
14.1567 33786.7
14.1721 33708.3
14.1874 33653.1
14.2027 33603.6
14.218 33567.3
14.2333 33527.8
14.2486 33466.8
14.264 33438.8
14.2793 33421.6
14.2946 33362.4
14.3099 33303.2
14.3252 33274.7
14.3405 33256.8
14.3559 33237.1
14.3712 33213.7
14.3865 33200.5
14.4018 33190.6
14.4171 33182.7
14.4324 33148.3
14.4478 33109.5
14.4631 33065.3
14.4784 33059.8
14.4937 33077.3
14.509 33107.2
14.5243 33151.1
14.5397 33188.1
14.555 33212
14.5703 33232.8
14.5856 33231.8
14.6009 33235.7
14.6162 33200.7
14.6315 33143.8
14.6469 33088.9
14.6622 33066.3
14.6775 33064.2
14.6928 33057.9
14.7081 32989.8
14.7234 32916.3
14.7388 32852.4
14.7541 32814.1
14.7694 32761.6
14.7847 32723.2
14.8 32688.1
14.8153 32628.4
14.8307 32586.2
14.846 32558.6
14.8613 32517.4
14.8766 32448.1
14.8919 32402
14.9072 32362.6
14.9226 32332.2
14.9379 32270.2
14.9532 32229.7
14.9685 32222.7
14.9838 32235.8
14.9991 32249.8
15.0145 32220.5
15.0298 32201.1
15.0451 32210.7
15.0604 32203.2
15.0757 32196.2
15.091 32195.1
15.1064 32208.9
15.1217 32215.8
15.137 32169.5
15.1523 32147.4
15.1676 32184.5
15.1829 32204.5
15.1983 32217.7
15.2136 32226.1
15.2289 32272.4
15.2442 32317.3
15.2595 32343.7
15.2748 32396.2
15.2902 32451.1
15.3055 32489.8
15.3208 32525.8
15.3361 32574.8
15.3514 32606.7
15.3667 32620.1
15.382 32624.9
15.3974 32643.1
15.4127 32636.4
15.428 32596.5
15.4433 32583.8
15.4586 32587.5
15.4739 32562.4
15.4893 32507.8
15.5046 32462.3
15.5199 32429.8
15.5352 32384.4
15.5505 32317
15.5658 32275.6
15.5812 32239.4
15.5965 32234.7
15.6118 32215.2
15.6271 32191.2
15.6424 32158.2
15.6577 32142.4
15.6731 32141.5
15.6884 32113.7
15.7037 32103.9
15.719 32086.4
15.7343 32071.8
15.7496 32065
15.765 32018.7
15.7803 31990.7
15.7956 31947.4
15.8109 31894.6
15.8262 31839.1
15.8415 31792.3
15.8569 31752.8
15.8722 31705.1
15.8875 31655
15.9028 31615.7
15.9181 31587.9
15.9334 31532.3
15.9488 31502.3
15.9641 31458.5
15.9794 31401.8
15.9947 31356.6
16.01 31305.1
16.0253 31308
16.0407 31322.8
16.056 31316.7
16.0713 31290.2
16.0866 31256.9
16.1019 31259.6
16.1172 31263.1
16.1326 31252.4
16.1479 31239.4
16.1632 31240.8
16.1785 31228.6
16.1938 31212.9
16.2091 31227.1
16.2244 31234.4
16.2398 31209.9
16.2551 31209.4
16.2704 31219.2
16.2857 31224.3
16.301 31219.5
16.3163 31173.3
16.3317 31134
16.347 31156.7
16.3623 31166.8
16.3776 31144.4
16.3929 31131.4
16.4082 31125.9
16.4236 31132.5
16.4389 31097.7
16.4542 31028
16.4695 30980.2
16.4848 30955.1
16.5001 30943.3
16.5155 30943.5
16.5308 30919.9
16.5461 30884
16.5614 30878
16.5767 30857.4
16.592 30803.1
16.6074 30737.6
16.6227 30712.2
16.638 30707.8
16.6533 30707.4
16.6686 30685.5
16.6839 30651.9
16.6993 30630.3
16.7146 30601.5
16.7299 30574
16.7452 30553.2
16.7605 30530.8
16.7758 30531
16.7912 30539.5
16.8065 30519.3
16.8218 30485.8
16.8371 30469.7
16.8524 30456.3
16.8677 30473
16.8831 30456.8
16.8984 30427.2
16.9137 30404.9
16.929 30356.2
16.9443 30340
16.9596 30324.7
16.9749 30335.3
16.9903 30335.6
17.0056 30306.1
17.0209 30249.2
17.0362 30244.3
17.0515 30226.6
17.0668 30184.8
17.0822 30179
17.0975 30198.4
17.1128 30169.2
17.1281 30102.3
17.1434 30058.2
17.1587 30029.3
17.1741 30016.5
17.1894 29989.4
17.2047 29981.8
17.22 29972.6
17.2353 29950.2
17.2506 29934.4
17.266 29903.7
17.2813 29867
17.2966 29847.6
17.3119 29829.2
17.3272 29835.9
17.3425 29842.2
17.3579 29825.9
17.3732 29796.4
17.3885 29799.8
17.4038 29843.8
17.4191 29883.6
17.4344 29867.8
17.4498 29845.7
17.4651 29845.3
17.4804 29831.3
17.4957 29845.9
17.511 29827.8
17.5263 29781.4
17.5417 29772.3
17.557 29783.6
17.5723 29807.6
17.5876 29803.5
17.6029 29822.2
17.6182 29808.8
17.6336 29830
17.6489 29865.6
17.6642 29872.3
17.6795 29866.2
17.6948 29869.8
17.7101 29864
17.7255 29856.7
17.7408 29823.7
17.7561 29791.5
17.7714 29786.1
17.7867 29778.3
17.802 29770.1
17.8173 29759.6
17.8327 29717.7
17.848 29675.4
17.8633 29697.6
17.8786 29698.1
17.8939 29666
17.9092 29684
17.9246 29700.8
17.9399 29674
17.9552 29627.1
17.9705 29622.9
17.9858 29603.7
18.0011 29567.9
18.0165 29572.1
18.0318 29550.9
18.0471 29526.8
18.0624 29511.9
18.0777 29495.3
18.093 29514.5
18.1084 29531.4
18.1237 29529.8
18.139 29491
18.1543 29452
18.1696 29445.5
18.1849 29393.3
18.2003 29360.1
18.2156 29390
18.2309 29393.7
18.2462 29379.4
18.2615 29422.1
18.2768 29430.7
18.2922 29415.5
18.3075 29423.1
18.3228 29435.2
18.3381 29451.1
18.3534 29487.5
18.3687 29557.4
18.3841 29594.5
18.3994 29589.3
18.4147 29593
18.43 29601.7
18.4453 29588.5
18.4606 29546
18.476 29520
18.4913 29514
18.5066 29493.2
18.5219 29469.3
18.5372 29455.2
18.5525 29438.2
18.5679 29392.7
18.5832 29354.9
18.5985 29357.9
18.6138 29332.2
18.6291 29289.6
18.6444 29256.2
18.6597 29231.5
18.6751 29209.4
18.6904 29233.1
18.7057 29218.6
18.721 29210.1
18.7363 29176.5
18.7516 29160.1
18.767 29162.7
18.7823 29117.6
18.7976 29054.5
18.8129 29043.1
18.8282 29050.2
18.8435 29013.3
18.8589 28969.1
18.8742 28933.6
18.8895 28888.8
18.9048 28866.1
18.9201 28831.3
18.9354 28806.4
18.9508 28801.4
18.9661 28771.4
18.9814 28759.1
18.9967 28744.8
19.012 28688.9
19.0273 28671.6
19.0427 28678.5
19.058 28668.3
19.0733 28656.5
19.0886 28617.2
19.1039 28604.4
19.1192 28586
19.1346 28603.3
19.1499 28585.6
19.1652 28556.7
19.1805 28528
19.1958 28550.3
19.2111 28563.8
19.2265 28565.6
19.2418 28578.3
19.2571 28556
19.2724 28514.1
19.2877 28509.4
19.303 28480.4
19.3184 28425.5
19.3337 28370.8
19.349 28358.9
19.3643 28336.3
19.3796 28302.3
19.3949 28294
19.4102 28313.3
19.4256 28296.7
19.4409 28279.1
19.4562 28258.3
19.4715 28224.4
19.4868 28223.7
19.5021 28231.6
19.5175 28220
19.5328 28179.6
19.5481 28139.1
19.5634 28105.5
19.5787 28091.3
19.594 28061.1
19.6094 28090.9
19.6247 28094.4
19.64 28075
19.6553 28084.3
19.6706 28066.1
19.6859 28015.7
19.7013 27998
19.7166 27996.1
19.7319 28001.2
19.7472 27984.6
19.7625 27979.6
19.7778 27971.4
19.7932 27951.2
19.8085 27932.8
19.8238 27937.2
19.8391 27922.3
19.8544 27888.7
19.8697 27850.9
19.8851 27834.6
19.9004 27868.3
19.9157 27841.5
19.931 27827.2
19.9463 27889.8
19.9616 27920.7
19.977 27870.3
19.9923 27832.9
20.0076 27848.9
20.0229 27821.8
20.0382 27769.9
20.0535 27754.9
20.0689 27748.7
20.0842 27735.6
20.0995 27727.3
20.1148 27706.7
20.1301 27698.8
20.1454 27682.2
20.1608 27678.1
20.1761 27687.7
20.1914 27657
20.2067 27611.1
20.222 27592.4
20.2373 27608.6
20.2526 27629.3
20.268 27648.8
20.2833 27684.1
20.2986 27669.2
20.3139 27647.2
20.3292 27610.2
20.3445 27647.6
20.3599 27633.7
20.3752 27588.7
20.3905 27578.3
20.4058 27619.8
20.4211 27646
20.4364 27632.7
20.4518 27641.7
20.4671 27637
20.4824 27662.5
20.4977 27643.3
20.513 27627.7
20.5283 27661.8
20.5437 27646
20.559 27632
20.5743 27594.4
20.5896 27613.2
20.6049 27606.2
20.6202 27567
20.6356 27555.8
20.6509 27575.5
20.6662 27581.6
20.6815 27554.2
20.6968 27562.2
20.7121 27542.3
20.7275 27547.2
20.7428 27566.6
20.7581 27580.1
20.7734 27573.7
20.7887 27545.3
20.804 27539.4
20.8194 27547.2
20.8347 27535.7
20.85 27517.4
20.8653 27508.1
20.8806 27531.4
20.8959 27522.9
20.9113 27500.8
20.9266 27501.4
20.9419 27475.5
20.9572 27462.2
20.9725 27446.9
20.9878 27421.6
21.0031 27409.1
21.0185 27485.2
21.0338 27492.3
21.0491 27435.8
21.0644 27435
21.0797 27458.2
21.095 27480.4
21.1104 27477.2
21.1257 27448.2
21.141 27441.8
21.1563 27425.8
21.1716 27442.3
21.1869 27460
21.2023 27443.6
21.2176 27411
21.2329 27371.7
21.2482 27387.2
21.2635 27405.7
21.2788 27408.7
21.2942 27424.4
21.3095 27369.2
21.3248 27393.8
21.3401 27382.9
21.3554 27362.4
21.3707 27352.4
21.3861 27382.7
21.4014 27371.4
21.4167 27349.4
21.432 27359.3
21.4473 27392.9
21.4626 27377.4
21.478 27390.8
21.4933 27402.4
21.5086 27403.8
21.5239 27433.5
21.5392 27425.9
21.5545 27360.9
21.5699 27356
21.5852 27367
21.6005 27377.6
21.6158 27370.5
21.6311 27322.9
21.6464 27299.3
21.6618 27318.9
21.6771 27374.3
21.6924 27411.3
21.7077 27396.1
21.723 27361.6
21.7383 27374.8
21.7537 27379.2
21.769 27394.1
21.7843 27407.1
21.7996 27366
21.8149 27382.9
21.8302 27320.9
21.8455 27320
21.8609 27343.8
21.8762 27341.9
21.8915 27386.1
21.9068 27417
21.9221 27430.2
21.9374 27400.9
21.9528 27395.1
21.9681 27368.1
21.9834 27399
21.9987 27383.5
22.014 27366.6
22.0293 27404.8
22.0447 27469.2
22.06 27492.7
22.0753 27464.2
22.0906 27433.6
22.1059 27498.4
22.1212 27565.3
22.1366 27560.5
22.1519 27575.9
22.1672 27537.2
22.1825 27502.6
22.1978 27516.9
22.2131 27569.3
22.2285 27605.5
22.2438 27605.4
22.2591 27579.1
22.2744 27538.8
22.2897 27510.5
22.305 27540.2
22.3204 27570.2
22.3357 27593.3
22.351 27648.5
22.3663 27657.9
22.3816 27652.5
22.3969 27676.8
22.4123 27639.9
22.4276 27644.9
22.4429 27641.8
22.4582 27618.7
22.4735 27667.3
22.4888 27671.1
22.5042 27662.4
22.5195 27663.9
22.5348 27655.3
22.5501 27696.8
22.5654 27703.2
22.5807 27697
22.596 27693.7
22.6114 27738.6
22.6267 27713.1
22.642 27677.8
22.6573 27680.3
22.6726 27710
22.6879 27738.1
22.7033 27762.8
22.7186 27737
22.7339 27694.1
22.7492 27719.6
22.7645 27705
22.7798 27743.8
22.7952 27747.3
22.8105 27769.7
22.8258 27762
22.8411 27741.8
22.8564 27792.1
22.8717 27850.9
22.8871 27804.8
22.9024 27834.6
22.9177 27821.4
22.933 27790.7
22.9483 27828.5
22.9636 27891.7
22.979 27915.8
22.9943 27826
