# xPDFsuite Configuration #
[PDF]
wavelength = 0.1
dataformat = QA
inputfile = B3_Bronze-3nm_ss_40.chi
backgroundfile = B3_Li-bkg_ss.chi
mode = xray
bgscale = 0.98705
composition = Ti O2
outputtype = iq
qmaxinst = 23.0
qmin = 0.1
qmax = 23.0
rmax = 30.0
rmin = 0.0
rstep = 0.01
rpoly = 0.9

[Misc]
inputdir = E:/Beamtime/PETRA-III_September-2019/BeamData/processed/Run1/B3/chi/chi_w_sigmas/chi_scaled
savedir = E:/Beamtime/PETRA-III_September-2019/BeamData/processed/Run1/B3
backgroundfilefull = E:/Beamtime/PETRA-III_September-2019/BeamData/processed/Run1/B3/chi/chi_w_sigmas/chi_scaled/B3_Li-bkg_ss.chi

#### start data
#S 1
#L Q($\AA^{-1}$)  intensity(a.u.)
0.111649 0
0.126965 0
0.142282 0
0.157598 0
0.172914 0
0.188231 0
0.203547 0
0.218864 0
0.23418 0
0.249496 0
0.264813 0
0.280129 0
0.295445 0
0.310762 0
0.326078 0
0.341394 0
0.356711 0
0.372027 0
0.387343 0
0.40266 0
0.417976 0
0.433292 0
0.448609 0
0.463925 0
0.479241 0
0.494558 0
0.509874 0
0.525191 0
0.540507 0
0.555823 0
0.57114 0
0.586456 0
0.601772 0
0.617089 0
0.632405 0
0.647721 0
0.663038 0
0.678354 0
0.69367 0
0.708987 0
0.724303 0
0.739619 0
0.754936 0
0.770252 0
0.785568 0
0.800885 0
0.816201 0
0.831518 0
0.846834 0
0.86215 1.37437
0.877467 98674.5
0.892783 98468.4
0.908099 97903.7
0.923416 97957.3
0.938732 98139.1
0.954048 98350.6
0.969365 98463.1
0.984681 98040
0.999997 96670.3
1.01531 94542.7
1.03063 90920.6
1.04595 86466.1
1.06126 80870.8
1.07658 74111.5
1.0919 67266.3
1.10721 59288
1.12253 51799.9
1.13784 44021
1.15316 36799.3
1.16848 30414.6
1.18379 24297.3
1.19911 19287.9
1.21443 14650.4
1.22974 10941.2
1.24506 7925.88
1.26038 5601.38
1.27569 4116.39
1.29101 3259.22
1.30632 2993.31
1.32164 3256.24
1.33696 3999.64
1.35227 5176.14
1.36759 6833.02
1.38291 8701.92
1.39822 10860.4
1.41354 12928
1.42886 14810
1.44417 16522.9
1.45949 17983.8
1.4748 19403.3
1.49012 21001
1.50544 22891.2
1.52075 25364.9
1.53607 28802.7
1.55139 33607.9
1.5667 39481.1
1.58202 47423.8
1.59733 56573.6
1.61265 67458.7
1.62797 79913.8
1.64328 93086.7
1.6586 107749
1.67392 121728
1.68923 135717
1.70455 148251
1.71987 159009
1.73518 168134
1.7505 174927
1.76581 180447
1.78113 183568
1.79645 184997
1.81176 184478
1.82708 182329
1.8424 178620
1.85771 173854
1.87303 168149
1.88835 162009
1.90366 156008
1.91898 150274
1.93429 145398
1.94961 141418
1.96493 138584
1.98024 136802
1.99556 135566
2.01088 134684
2.02619 133376
2.04151 131473
2.05683 128601
2.07214 124820
2.08746 120347
2.10277 115004
2.11809 109539
2.13341 103579
2.14872 97843.9
2.16404 92325.3
2.17936 87268.6
2.19467 83070.3
2.20999 79470.4
2.22531 76751.8
2.24062 74519.7
2.25594 72826.5
2.27125 71458.7
2.28657 70251.7
2.30189 69107.8
2.3172 67785
2.33252 66346.8
2.34784 64748.2
2.36315 63120.2
2.37847 61602
2.39379 59973
2.4091 58871.8
2.42442 57879.5
2.43973 57411.1
2.45505 57247.2
2.47037 57303.3
2.48568 57639
2.501 58027
2.51632 58493.4
2.53163 58896.3
2.54695 59123.3
2.56226 59292.9
2.57758 59442.2
2.5929 59500.3
2.60821 59608.4
2.62353 59620.1
2.63885 59564.2
2.65416 59435.6
2.66948 59284.4
2.6848 59139.2
2.70011 58921.4
2.71543 58907.3
2.73074 58923
2.74606 59121.3
2.76138 59530.2
2.77669 60269.6
2.79201 61437
2.80733 63036
2.82264 65349.1
2.83796 68474.4
2.85328 72511.9
2.86859 77749.5
2.88391 83946.3
2.89922 91483.6
2.91454 99905.7
2.92986 109146
2.94517 118923
2.96049 128670
2.97581 138493
2.99112 147113
3.00644 154659
3.02176 160138
3.03707 163435
3.05239 164553
3.0677 163389
3.08302 160400
3.09834 155776
3.11365 150253
3.12897 144195
3.14429 138231
3.1596 132645
3.17492 128166
3.19024 124348
3.20555 121625
3.22087 119525
3.23618 117831
3.2515 116278
3.26682 114498
3.28213 112395
3.29745 109687
3.31277 106591
3.32808 103024
3.3434 99068.4
3.35872 95227
3.37403 91278.1
3.38935 87798.6
3.40466 84588
3.41998 81818.2
3.4353 79494.2
3.45061 77496.6
3.46593 76068
3.48125 74934
3.49656 74231.2
3.51188 73794.6
3.52719 73728.6
3.54251 74118.6
3.55783 74827.9
3.57314 75782.9
3.58846 76970.3
3.60378 78260.9
3.61909 79599.7
3.63441 80874.5
3.64973 81988.8
3.66504 82877.6
3.68036 83570.9
3.69567 83999.4
3.71099 84177.6
3.72631 84244.6
3.74162 84156.7
3.75694 84248.9
3.77226 84417
3.78757 84840.5
3.80289 85537.5
3.81821 86497.3
3.83352 87707.2
3.84884 89195.1
3.86415 90724.9
3.87947 92209.1
3.89479 93388.7
3.9101 94201.9
3.92542 94555.9
3.94074 94459
3.95605 93872.7
3.97137 92980.1
3.98669 91706.5
4.002 90305.9
4.01732 88844.7
4.03263 87516.2
4.04795 86475.6
4.06327 85794.7
4.07858 85531.7
4.0939 85709.5
4.10922 86187.6
4.12453 86910.3
4.13985 87700.4
4.15517 88426.3
4.17048 88923.6
4.1858 89090.7
4.20111 88935.6
4.21643 88514.7
4.23175 87776.2
4.24706 86787.1
4.26238 85637.9
4.2777 84457.6
4.29301 83363
4.30833 82365
4.32365 81619.5
4.33896 81179.6
4.35428 81082.7
4.36959 81140.6
4.38491 81511.4
4.40023 81930.6
4.41554 82397
4.43086 82753.5
4.44618 82909.7
4.46149 82825.9
4.47681 82390.6
4.49213 81637.4
4.50744 80563.2
4.52276 79189.4
4.53807 77481.7
4.55339 75583
4.56871 73491
4.58402 71345.3
4.59934 69153.9
4.61466 67027.8
4.62997 65064.2
4.64529 63235.4
4.6606 61616.7
4.67592 60148.4
4.69124 58927
4.70655 57946.8
4.72187 57231.9
4.73719 56790.2
4.7525 56574.9
4.76782 56671.7
4.78314 57070.1
4.79845 57728
4.81377 58670.9
4.82908 59843.7
4.8444 61263.8
4.85972 62884.2
4.87503 64613.8
4.89035 66406.6
4.90567 68209.7
4.92098 70036
4.9363 71899.3
4.95162 73772.4
4.96693 75669.2
4.98225 77786.8
4.99756 80258.3
5.01288 82857.6
5.0282 85418.3
5.04351 88039.7
5.05883 90177.6
5.07415 91874
5.08946 92964.2
5.10478 93263.8
5.1201 92985.8
5.13541 91963.4
5.15073 90535.8
5.16604 88655.5
5.18136 86657.5
5.19668 84747.2
5.21199 83133
5.22731 81776
5.24263 80725.8
5.25794 79807.7
5.27326 79135.7
5.28858 78671.7
5.30389 78465
5.31921 78596.6
5.33452 79020.5
5.34984 79736.8
5.36516 80464.3
5.38047 81028.4
5.39579 81136.5
5.41111 80690.1
5.42642 79568.9
5.44174 77848.2
5.45706 75445.8
5.47237 72550.3
5.48769 69282
5.503 65969.9
5.51832 62926.1
5.53364 60150.1
5.54895 57891.3
5.56427 56037.8
5.57959 54594.2
5.5949 53486.4
5.61022 52537
5.62553 51801.1
5.64085 51109.3
5.65617 50509.6
5.67148 50001.7
5.6868 49598.4
5.70212 49257.1
5.71743 48990.3
5.73275 48889.9
5.74807 48911.3
5.76338 49106.5
5.7787 49449.7
5.79401 49923.1
5.80933 50593.6
5.82465 51377.2
5.83996 52268
5.85528 53194
5.8706 54130.2
5.88591 55042
5.90123 55874
5.91655 56634.4
5.93186 57316.7
5.94718 57874
5.96249 58247.6
5.97781 58458.5
5.99313 58483
6.00844 58367.3
6.02376 58113.6
6.03908 57797.6
6.05439 57481.5
6.06971 57155.2
6.08503 56875.3
6.10034 56653.8
6.11566 56520.6
6.13097 56449
6.14629 56411.3
6.16161 56400.3
6.17692 56437.6
6.19224 56559.7
6.20756 56730
6.22287 56982.8
6.23819 57262.9
6.25351 57536.1
6.26882 57735.2
6.28414 57800.1
6.29945 57700.2
6.31477 57389.1
6.33009 56949.4
6.3454 56333.1
6.36072 55626.5
6.37604 54831
6.39135 54045.9
6.40667 53298.2
6.42199 52678.5
6.4373 52203.6
6.45262 51828.3
6.46793 51570
6.48325 51406.4
6.49857 51299.2
6.51388 51228.9
6.5292 51194.9
6.54452 51161.3
6.55983 51094.8
6.57515 51064.2
6.59046 51022.3
6.60578 51086.1
6.6211 51200.2
6.63641 51394.3
6.65173 51572.2
6.66705 51819.3
6.68236 52146.2
6.69768 52541.2
6.713 52997
6.72831 53469.5
6.74363 53954.4
6.75894 54456.2
6.77426 54997.5
6.78958 55574.5
6.80489 56134.2
6.82021 56645.5
6.83553 57095.7
6.85084 57457.3
6.86616 57725.4
6.88148 57893.8
6.89679 57984.6
6.91211 57961.2
6.92742 57832.1
6.94274 57666.5
6.95806 57427.4
6.97337 57138.9
6.98869 56819.5
7.00401 56498.8
7.01932 56183
7.03464 55850
7.04996 55514.1
7.06527 55183.1
7.08059 54845.9
7.0959 54501.2
7.11122 54132
7.12654 53745.2
7.14185 53372
7.15717 53008.2
7.17249 52661.1
7.1878 52342.7
7.20312 52059.6
7.21844 51815.7
7.23375 51607.3
7.24907 51393.5
7.26438 51207.2
7.2797 51011.8
7.29502 50837.4
7.31033 50626.9
7.32565 50427.1
7.34097 50223.3
7.35628 50055.3
7.3716 49884.3
7.38692 49750.4
7.40223 49647
7.41755 49640.9
7.43286 49701.2
7.44818 49820.5
7.4635 50003.6
7.47881 50196.8
7.49413 50423.8
7.50945 50627.8
7.52476 50799.1
7.54008 50887.6
7.55539 50896.3
7.57071 50828
7.58603 50662.9
7.60134 50423
7.61666 50136.4
7.63198 49830.9
7.64729 49513.4
7.66261 49218
7.67793 49030.9
7.69324 48944
7.70856 48962.6
7.72387 49077.8
7.73919 49294.4
7.75451 49609.4
7.76982 49955.1
7.78514 50320.2
7.80046 50641.4
7.81577 50864
7.83109 50949.1
7.84641 50893.1
7.86172 50679.4
7.87704 50334.7
7.89235 49872.9
7.90767 49399.4
7.92299 48918
7.9383 48444.8
7.95362 47997.3
7.96894 47570.4
7.98425 47181.7
7.99957 46836.9
8.01489 46534.3
8.0302 46234.6
8.04552 45933
8.06083 45656.3
8.07615 45415.7
8.09147 45253.8
8.10678 45160.8
8.1221 45095
8.13742 45090.1
8.15273 45148.6
8.16805 45279.7
8.18337 45437.8
8.19868 45637.3
8.214 45852
8.22931 46093.2
8.24463 46312.4
8.25995 46485.1
8.27526 46594.1
8.29058 46657
8.3059 46691.4
8.32121 46662.4
8.33653 46604.7
8.35185 46510.2
8.36716 46363.7
8.38248 46196.9
8.39779 46054
8.41311 45930
8.42843 45799.4
8.44374 45688.7
8.45906 45561.9
8.47438 45440.7
8.48969 45290.9
8.50501 45151.5
8.52032 44994.1
8.53564 44829.7
8.55096 44670.1
8.56627 44513
8.58159 44372.4
8.59691 44261.7
8.61222 44216
8.62754 44169.4
8.64286 44150.2
8.65817 44174.2
8.67349 44241.2
8.6888 44355.7
8.70412 44568.7
8.71944 44926.5
8.73475 45406.9
8.75007 45981.2
8.76539 46682.9
8.7807 47481
8.79602 48263.2
8.81134 48987.3
8.82665 49558.7
8.84197 50002.7
8.85728 50262.1
8.8726 50406.6
8.88792 50440.4
8.90323 50451.6
8.91855 50484.5
8.93387 50607.4
8.94918 50816.4
8.9645 51016
8.97982 51175.6
8.99513 51217.6
9.01045 51166.9
9.02576 50933.8
9.04108 50532
9.0564 49953.8
9.07171 49224.1
9.08703 48446.7
9.10235 47659
9.11766 46897.9
9.13298 46207.6
9.1483 45593.9
9.16361 45074.5
9.17893 44635.9
9.19424 44238
9.20956 43889.6
9.22488 43557
9.24019 43260.1
9.25551 42980
9.27083 42736.8
9.28614 42505.7
9.30146 42311.5
9.31678 42132.2
9.33209 41964.1
9.34741 41816.2
9.36272 41711
9.37804 41630.9
9.39336 41590.7
9.40867 41563.5
9.42399 41553.8
9.43931 41591.1
9.45462 41654.8
9.46994 41733.3
9.48525 41832.1
9.50057 41993.7
9.51589 42181
9.5312 42352
9.54652 42456.4
9.56184 42500.7
9.57715 42469.9
9.59247 42332.9
9.60779 42136.9
9.6231 41876
9.63842 41574.1
9.65373 41264.6
9.66905 40985.4
9.68437 40763.3
9.69968 40613.5
9.715 40496.4
9.73032 40422.3
9.74563 40363.7
9.76095 40359.4
9.77627 40403.7
9.79158 40464
9.8069 40551.9
9.82221 40602.6
9.83753 40667.2
9.85285 40719.2
9.86816 40780.4
9.88348 40837.3
9.8988 40925.9
9.91411 41010.7
9.92943 41128.7
9.94475 41249.6
9.96006 41446
9.97538 41660.8
9.99069 41903
10.006 42107.8
10.0213 42321.5
10.0366 42531.2
10.052 42766
10.0673 42999.1
10.0826 43238
10.0979 43482.1
10.1132 43740.4
10.1285 44051
10.1439 44367.6
10.1592 44684.3
10.1745 44909.1
10.1898 45080.5
10.2051 45173.4
10.2204 45221.8
10.2358 45252.1
10.2511 45293.7
10.2664 45340.6
10.2817 45438.2
10.297 45603.5
10.3123 45878.6
10.3277 46126.4
10.343 46308.7
10.3583 46398.8
10.3736 46394.8
10.3889 46284.8
10.4042 46072
10.4196 45809.1
10.4349 45526.4
10.4502 45223.9
10.4655 44962.9
10.4808 44747.2
10.4961 44600.7
10.5115 44483.8
10.5268 44407.5
10.5421 44424.8
10.5574 44507.2
10.5727 44614.1
10.588 44699
10.6033 44747.5
10.6187 44774.9
10.634 44760.8
10.6493 44714.8
10.6646 44628.6
10.6799 44467
10.6952 44276.6
10.7106 44103.3
10.7259 43952
10.7412 43815.3
10.7565 43719.2
10.7718 43670.6
10.7871 43641.7
10.8025 43637.7
10.8178 43649.2
10.8331 43629.9
10.8484 43561.4
10.8637 43418.7
10.879 43224.7
10.8944 42982.7
10.9097 42712.4
10.925 42452.1
10.9403 42174.8
10.9556 41908.7
10.9709 41666
10.9863 41432.6
11.0016 41211.3
11.0169 41012.2
11.0322 40787.8
11.0475 40568.3
11.0628 40340
11.0782 40110.7
11.0935 39883.6
11.1088 39654.8
11.1241 39455.8
11.1394 39277.2
11.1547 39106.7
11.1701 38945.6
11.1854 38775.3
11.2007 38613
11.216 38460.3
11.2313 38322.3
11.2466 38184.7
11.262 38065.1
11.2773 37980.8
11.2926 37942.2
11.3079 37918
11.3232 37895.4
11.3385 37847.3
11.3538 37767.3
11.3692 37696.9
11.3845 37648.9
11.3998 37630.8
11.4151 37606.1
11.4304 37605.8
11.4457 37595.1
11.4611 37592.9
11.4764 37597.5
11.4917 37643.3
11.507 37672.9
11.5223 37736.2
11.5376 37750.8
11.553 37793.9
11.5683 37817.9
11.5836 37840.1
11.5989 37855.6
11.6142 37854.6
11.6295 37821
11.6449 37752.1
11.6602 37662.9
11.6755 37599.4
11.6908 37573.5
11.7061 37575.2
11.7214 37558.9
11.7368 37539.5
11.7521 37540.2
11.7674 37584.7
11.7827 37628.4
11.798 37676.9
11.8133 37683.4
11.8287 37661.8
11.844 37648.3
11.8593 37611.6
11.8746 37578.4
11.8899 37561.1
11.9052 37527.1
11.9206 37479.5
11.9359 37474.1
11.9512 37509.7
11.9665 37552.1
11.9818 37581.8
11.9971 37603.4
12.0125 37599.9
12.0278 37568
12.0431 37534
12.0584 37524.4
12.0737 37522.8
12.089 37512.6
12.1044 37478
12.1197 37419.8
12.135 37377.4
12.1503 37341.9
12.1656 37299.3
12.1809 37269.6
12.1962 37246.6
12.2116 37221.9
12.2269 37217.5
12.2422 37197.8
12.2575 37192.5
12.2728 37157.8
12.2881 37137.6
12.3035 37138.5
12.3188 37137.5
12.3341 37116.1
12.3494 37095.3
12.3647 37053.3
12.38 37006.8
12.3954 36970.3
12.4107 36959.4
12.426 36944.4
12.4413 36914.2
12.4566 36895.3
12.4719 36874.7
12.4873 36837.7
12.5026 36792.9
12.5179 36747.4
12.5332 36701.5
12.5485 36666.1
12.5638 36640
12.5792 36622
12.5945 36611.6
12.6098 36603
12.6251 36586.7
12.6404 36579.6
12.6557 36588.9
12.6711 36613.8
12.6864 36622.9
12.7017 36608.7
12.717 36616.1
12.7323 36636.2
12.7476 36646.9
12.763 36702.5
12.7783 36779.8
12.7936 36864
12.8089 36969.7
12.8242 37057.2
12.8395 37123.8
12.8549 37171.2
12.8702 37147.7
12.8855 37083.9
12.9008 37023
12.9161 36959.1
12.9314 36874.7
12.9467 36777.3
12.9621 36701.8
12.9774 36656.3
12.9927 36630.6
13.008 36618.7
13.0233 36609.2
13.0386 36577.5
13.054 36579.5
13.0693 36571.6
13.0846 36566.6
13.0999 36587.8
13.1152 36591.9
13.1305 36554.7
13.1459 36508.7
13.1612 36507
13.1765 36486.6
13.1918 36483.9
13.2071 36494.4
13.2224 36509.8
13.2378 36519
13.2531 36533.2
13.2684 36558.8
13.2837 36556.6
13.299 36589.5
13.3143 36661.6
13.3297 36700.5
13.345 36743.3
13.3603 36807.5
13.3756 36910.7
13.3909 37030.5
13.4062 37170.9
13.4216 37360.6
13.4369 37571.1
13.4522 37785.4
13.4675 37975.8
13.4828 38129.1
13.4981 38263.2
13.5135 38355
13.5288 38414.5
13.5441 38482.2
13.5594 38571.7
13.5747 38644.9
13.59 38676.9
13.6054 38670.8
13.6207 38619.7
13.636 38489.9
13.6513 38336.4
13.6666 38145.5
13.6819 37934.2
13.6973 37733.6
13.7126 37552.3
13.7279 37405.4
13.7432 37274.1
13.7585 37153.3
13.7738 37052.9
13.7891 36953.3
13.8045 36876
13.8198 36821.8
13.8351 36784.1
13.8504 36747.7
13.8657 36717.2
13.881 36697.9
13.8964 36708.4
13.9117 36729.4
13.927 36724.9
13.9423 36721.8
13.9576 36749.5
13.9729 36742.6
13.9883 36695.8
14.0036 36641.9
14.0189 36558.4
14.0342 36436.4
14.0495 36304.7
14.0648 36154.9
14.0802 36003.4
14.0955 35859.9
14.1108 35722.6
14.1261 35574
14.1414 35455.7
14.1567 35370.7
14.1721 35288.6
14.1874 35212.4
14.2027 35148
14.218 35108.6
14.2333 35068.9
14.2486 35014.3
14.264 34959.9
14.2793 34925.3
14.2946 34885.4
14.3099 34857.5
14.3252 34825.2
14.3405 34806.7
14.3559 34792.2
14.3712 34760.4
14.3865 34753.5
14.4018 34762.3
14.4171 34771
14.4324 34740.3
14.4478 34681.8
14.4631 34637.4
14.4784 34625.4
14.4937 34627.7
14.509 34645.9
14.5243 34674.5
14.5397 34691.7
14.555 34701.1
14.5703 34719.6
14.5856 34725.4
14.6009 34711.5
14.6162 34708.7
14.6315 34681.8
14.6469 34628.7
14.6622 34584.3
14.6775 34543.6
14.6928 34502
14.7081 34467.8
14.7234 34438.5
14.7388 34380
14.7541 34317.4
14.7694 34250.1
14.7847 34194.6
14.8 34165.6
14.8153 34103.1
14.8307 34053
14.846 34028.9
14.8613 34006.5
14.8766 33955.7
14.8919 33923.1
14.9072 33887.8
14.9226 33846
14.9379 33797.5
14.9532 33757.2
14.9685 33753.8
14.9838 33756.6
14.9991 33761.1
15.0145 33746.7
15.0298 33713.8
15.0451 33689.3
15.0604 33684.7
15.0757 33693.5
15.091 33679.6
15.1064 33657.9
15.1217 33657.4
15.137 33647.2
15.1523 33651
15.1676 33667.7
15.1829 33671.2
15.1983 33705.8
15.2136 33739
15.2289 33757
15.2442 33789.3
15.2595 33827.3
15.2748 33868.4
15.2902 33907.2
15.3055 33973.9
15.3208 34042.1
15.3361 34101
15.3514 34158.5
15.3667 34170.6
15.382 34145.3
15.3974 34135.9
15.4127 34155.2
15.428 34149.8
15.4433 34139.9
15.4586 34127.7
15.4739 34082.5
15.4893 34020.7
15.5046 34001.1
15.5199 33982.2
15.5352 33957.3
15.5505 33899.3
15.5658 33854.7
15.5812 33813.8
15.5965 33794.4
15.6118 33762.4
15.6271 33723.1
15.6424 33687.5
15.6577 33662
15.6731 33646
15.6884 33611.9
15.7037 33600.6
15.719 33594.3
15.7343 33591.8
15.7496 33558.1
15.765 33512.3
15.7803 33489.1
15.7956 33451.9
15.8109 33423.3
15.8262 33404.8
15.8415 33360.2
15.8569 33311.2
15.8722 33254.9
15.8875 33176.7
15.9028 33109.3
15.9181 33066.6
15.9334 33001.1
15.9488 32962.8
15.9641 32949.9
15.9794 32941.2
15.9947 32936.4
16.01 32907.2
16.0253 32848.3
16.0407 32791.4
16.056 32743.9
16.0713 32719.8
16.0866 32697
16.1019 32705.9
16.1172 32716.7
16.1326 32701.4
16.1479 32670.2
16.1632 32695
16.1785 32714.4
16.1938 32694.2
16.2091 32690.4
16.2244 32687
16.2398 32658.7
16.2551 32658.8
16.2704 32653.5
16.2857 32644.6
16.301 32628.8
16.3163 32617.3
16.3317 32581.2
16.347 32580.6
16.3623 32593.8
16.3776 32601.1
16.3929 32586.5
16.4082 32576.2
16.4236 32575.8
16.4389 32536.9
16.4542 32472.7
16.4695 32426.9
16.4848 32402.6
16.5001 32391.6
16.5155 32386.8
16.5308 32379.2
16.5461 32372.7
16.5614 32350.2
16.5767 32295
16.592 32255.4
16.6074 32187.5
16.6227 32150.7
16.638 32122
16.6533 32108.4
16.6686 32084.9
16.6839 32036.7
16.6993 32005.4
16.7146 31981.4
16.7299 31976.1
16.7452 31990
16.7605 31978.1
16.7758 31968.7
16.7912 31946.6
16.8065 31943.4
16.8218 31929.1
16.8371 31885.2
16.8524 31844.6
16.8677 31850.3
16.8831 31838
16.8984 31825.9
16.9137 31798
16.929 31753
16.9443 31741.7
16.9596 31756
16.9749 31743.8
16.9903 31705.7
17.0056 31703.1
17.0209 31687.1
17.0362 31664.9
17.0515 31669.9
17.0668 31640.9
17.0822 31610.8
17.0975 31565.6
17.1128 31493.7
17.1281 31446.3
17.1434 31434.2
17.1587 31420.6
17.1741 31412.8
17.1894 31413.8
17.2047 31421.7
17.22 31393.2
17.2353 31365.8
17.2506 31338.8
17.266 31306.3
17.2813 31291.1
17.2966 31296.9
17.3119 31284.8
17.3272 31247
17.3425 31220.9
17.3579 31202.2
17.3732 31168.6
17.3885 31193.2
17.4038 31239.6
17.4191 31236.9
17.4344 31232.8
17.4498 31227.1
17.4651 31249.9
17.4804 31228.3
17.4957 31200.4
17.511 31173.5
17.5263 31158.7
17.5417 31144
17.557 31162.9
17.5723 31200.5
17.5876 31191.6
17.6029 31212.7
17.6182 31212.5
17.6336 31205.2
17.6489 31218
17.6642 31242.3
17.6795 31250.9
17.6948 31265.7
17.7101 31249.6
17.7255 31250
17.7408 31259.3
17.7561 31208.9
17.7714 31162.3
17.7867 31168.5
17.802 31209.6
17.8173 31211.1
17.8327 31166.9
17.848 31112.1
17.8633 31109.8
17.8786 31085.5
17.8939 31045.4
17.9092 31042
17.9246 31041.7
17.9399 31044.2
17.9552 31029.5
17.9705 31014.2
17.9858 30994.3
18.0011 30963.8
18.0165 30953.4
18.0318 30967.2
18.0471 30974
18.0624 30965.3
18.0777 30926.1
18.093 30898.5
18.1084 30901.2
18.1237 30875.8
18.139 30840.2
18.1543 30813.8
18.1696 30798.3
18.1849 30771.3
18.2003 30746.6
18.2156 30786.2
18.2309 30797.7
18.2462 30786.2
18.2615 30818.5
18.2768 30824.7
18.2922 30826.1
18.3075 30849.9
18.3228 30865.7
18.3381 30888.2
18.3534 30922
18.3687 30919.3
18.3841 30922.8
18.3994 30950.8
18.4147 30982.3
18.43 30992.6
18.4453 30988.3
18.4606 30953.7
18.476 30933.9
18.4913 30913
18.5066 30857.2
18.5219 30841.9
18.5372 30812.6
18.5525 30772.5
18.5679 30761.8
18.5832 30744.5
18.5985 30738.3
18.6138 30740.4
18.6291 30699.1
18.6444 30654.2
18.6597 30624.7
18.6751 30619.3
18.6904 30627.1
18.7057 30608.9
18.721 30571.2
18.7363 30529.6
18.7516 30534.1
18.767 30535.9
18.7823 30481.6
18.7976 30415
18.8129 30421.6
18.8282 30405.1
18.8435 30377.9
18.8589 30353.5
18.8742 30303.2
18.8895 30271
18.9048 30262.4
18.9201 30233.2
18.9354 30231.5
18.9508 30222.1
18.9661 30175.3
18.9814 30162.6
18.9967 30122.2
19.012 30070
19.0273 30036.3
19.0427 30055.5
19.058 30049.9
19.0733 30027.9
19.0886 30017.8
19.1039 30011.2
19.1192 29989
19.1346 29975.5
19.1499 29963.4
19.1652 29954.7
19.1805 29941.6
19.1958 29933.2
19.2111 29942.4
19.2265 29937.8
19.2418 29944
19.2571 29905.3
19.2724 29865.2
19.2877 29865.2
19.303 29855.8
19.3184 29831.5
19.3337 29781.8
19.349 29777.4
19.3643 29738.7
19.3796 29704.1
19.3949 29678.1
19.4102 29662.9
19.4256 29672.3
19.4409 29649.7
19.4562 29604.6
19.4715 29579.2
19.4868 29537.4
19.5021 29507.5
19.5175 29517.3
19.5328 29542.2
19.5481 29515.5
19.5634 29497.9
19.5787 29470.2
19.594 29427.9
19.6094 29469.5
19.6247 29470.5
19.64 29401
19.6553 29403.1
19.6706 29410.4
19.6859 29390.8
19.7013 29369.5
19.7166 29379.1
19.7319 29369.3
19.7472 29349.3
19.7625 29292.6
19.7778 29295.2
19.7932 29311.1
19.8085 29306.3
19.8238 29320.7
19.8391 29253.3
19.8544 29205
19.8697 29196.9
19.8851 29198.4
19.9004 29214.9
19.9157 29191.3
19.931 29172
19.9463 29196.9
19.9616 29167.9
19.977 29151.1
19.9923 29156.5
20.0076 29149.9
20.0229 29138.4
20.0382 29135.8
20.0535 29097
20.0689 29058.3
20.0842 29063.3
20.0995 29075.4
20.1148 29066.3
20.1301 29072.9
20.1454 29089.8
20.1608 29080.5
20.1761 29054.2
20.1914 29025.1
20.2067 28998.1
20.222 28963
20.2373 29001.3
20.2526 29032.8
20.268 29001.3
20.2833 29016.7
20.2986 29025.6
20.3139 29005.7
20.3292 29008.1
20.3445 29002.3
20.3599 29018.5
20.3752 29009.6
20.3905 29033.8
20.4058 29075.6
20.4211 29047.4
20.4364 29009.5
20.4518 29006.1
20.4671 29019
20.4824 29041.9
20.4977 29033.3
20.513 28990.9
20.5283 29006.1
20.5437 29045.4
20.559 29039.6
20.5743 28978.7
20.5896 28979.7
20.6049 28988.3
20.6202 28947.7
20.6356 28906.9
20.6509 28940.4
20.6662 28974
20.6815 28972.7
20.6968 28945.6
20.7121 28898.5
20.7275 28851.2
20.7428 28849.2
20.7581 28845.9
20.7734 28858.1
20.7887 28834.6
20.804 28838.4
20.8194 28885.3
20.8347 28882.5
20.85 28850.4
20.8653 28837.9
20.8806 28856.9
20.8959 28839.4
20.9113 28832.9
20.9266 28886.6
20.9419 28895.7
20.9572 28861.4
20.9725 28834.3
20.9878 28811
21.0031 28781.5
21.0185 28823.9
21.0338 28838.6
21.0491 28841.4
21.0644 28807.1
21.0797 28814.8
21.095 28803.8
21.1104 28793.2
21.1257 28788.1
21.141 28767.4
21.1563 28778
21.1716 28817
21.1869 28823.9
21.2023 28798.2
21.2176 28762.8
21.2329 28734.9
21.2482 28748
21.2635 28775
21.2788 28763.3
21.2942 28746
21.3095 28711.4
21.3248 28712.1
21.3401 28747.5
21.3554 28776.4
21.3707 28730.6
21.3861 28730
21.4014 28730.2
21.4167 28716.9
21.432 28738.7
21.4473 28727.5
21.4626 28703.9
21.478 28690.3
21.4933 28676.2
21.5086 28674
21.5239 28668.5
21.5392 28680.8
21.5545 28686.8
21.5699 28703.7
21.5852 28688.7
21.6005 28708.8
21.6158 28701.8
21.6311 28683.4
21.6464 28678
21.6618 28678.3
21.6771 28720.5
21.6924 28734.8
21.7077 28706
21.723 28691.1
21.7383 28687.3
21.7537 28698.4
21.769 28705.8
21.7843 28719.9
21.7996 28726.9
21.8149 28757.3
21.8302 28718.5
21.8455 28700.2
21.8609 28678.5
21.8762 28671.5
21.8915 28711.5
21.9068 28688.2
21.9221 28676
21.9374 28728.3
21.9528 28743.5
21.9681 28724.5
21.9834 28755.8
21.9987 28778.5
22.014 28734.4
22.0293 28742.8
22.0447 28778.5
22.06 28791.9
22.0753 28800
22.0906 28842.4
22.1059 28862
22.1212 28878.9
22.1366 28869.5
22.1519 28888.5
22.1672 28870.2
22.1825 28847.8
22.1978 28864.6
22.2131 28848.3
22.2285 28902.6
22.2438 28892.7
22.2591 28878.9
22.2744 28881.5
22.2897 28847.9
22.305 28893.9
22.3204 28922.8
22.3357 28920.6
22.351 28949.3
22.3663 28954.4
22.3816 29000.7
22.3969 29044.7
22.4123 29003.3
22.4276 28972.3
22.4429 28943.1
22.4582 28953.7
22.4735 28996.8
22.4888 28980.2
22.5042 28970
22.5195 29004.1
22.5348 28976.4
22.5501 28985.5
22.5654 28998.9
22.5807 29031.4
22.596 29058.6
22.6114 29088.4
22.6267 29047.5
22.642 29038.2
22.6573 29057.9
22.6726 29077.2
22.6879 29093.8
22.7033 29073.8
22.7186 29048.5
22.7339 29046.1
22.7492 29029.5
22.7645 29068.7
22.7798 29065.9
22.7952 29046
22.8105 29039.2
22.8258 29083.3
22.8411 29069.3
22.8564 29106.5
22.8717 29122.6
22.8871 29112.1
22.9024 29142.7
22.9177 29119.4
22.933 29126.3
22.9483 29158.1
22.9636 29199.1
22.979 29176.1
22.9943 29171.3
