# xPDFsuite Configuration #
[PDF]
wavelength = 0.1
dataformat = QA
inputfile = B3_Bronze-3nm_ss_21.chi
backgroundfile = B3_Li-bkg_ss.chi
mode = xray
bgscale = 0.98705
composition = Ti O2
outputtype = iq
qmaxinst = 23.0
qmin = 0.1
qmax = 23.0
rmax = 30.0
rmin = 0.0
rstep = 0.01
rpoly = 0.9

[Misc]
inputdir = E:/Beamtime/PETRA-III_September-2019/BeamData/processed/Run1/B3/chi/chi_w_sigmas/chi_scaled
savedir = E:/Beamtime/PETRA-III_September-2019/BeamData/processed/Run1/B3
backgroundfilefull = E:/Beamtime/PETRA-III_September-2019/BeamData/processed/Run1/B3/chi/chi_w_sigmas/chi_scaled/B3_Li-bkg_ss.chi

#### start data
#S 1
#L Q($\AA^{-1}$)  intensity(a.u.)
0.111649 0
0.126965 0
0.142282 0
0.157598 0
0.172914 0
0.188231 0
0.203547 0
0.218864 0
0.23418 0
0.249496 0
0.264813 0
0.280129 0
0.295445 0
0.310762 0
0.326078 0
0.341394 0
0.356711 0
0.372027 0
0.387343 0
0.40266 0
0.417976 0
0.433292 0
0.448609 0
0.463925 0
0.479241 0
0.494558 0
0.509874 0
0.525191 0
0.540507 0
0.555823 0
0.57114 0
0.586456 0
0.601772 0
0.617089 0
0.632405 0
0.647721 0
0.663038 0
0.678354 0
0.69367 0
0.708987 0
0.724303 0
0.739619 0
0.754936 0
0.770252 0
0.785568 0
0.800885 0
0.816201 0
0.831518 0
0.846834 0
0.86215 1.6159
0.877467 116016
0.892783 116766
0.908099 117631
0.923416 119294
0.938732 121763
0.954048 123898
0.969365 125193
0.984681 125112
0.999997 123186
1.01531 119788
1.03063 113918
1.04595 106820
1.06126 98337.5
1.07658 88569.4
1.0919 78995.6
1.10721 68404.6
1.12253 58938.6
1.13784 49550.2
1.15316 41114.3
1.16848 33718.2
1.18379 26790
1.19911 21249.6
1.21443 16184.5
1.22974 12170.5
1.24506 8919.1
1.26038 6317.26
1.27569 4544.85
1.29101 3414.15
1.30632 2829.41
1.32164 2913.1
1.33696 3550.66
1.35227 4651.46
1.36759 6210.47
1.38291 7962.52
1.39822 10130.5
1.41354 12132.8
1.42886 14119
1.44417 16016.4
1.45949 17891.7
1.4748 20031.6
1.49012 22457.6
1.50544 25673.9
1.52075 29680.2
1.53607 34778.5
1.55139 41374.3
1.5667 48933.5
1.58202 58468.9
1.59733 68676.4
1.61265 79746.3
1.62797 91140.4
1.64328 101824
1.6586 112206
1.67392 120853
1.68923 127888
1.70455 133120
1.71987 136524
1.73518 138578
1.7505 139531
1.76581 140338
1.78113 140792
1.79645 141235
1.81176 141435
1.82708 141300
1.8424 140517
1.85771 139392
1.87303 137378
1.88835 134868
1.90366 131769
1.91898 128253
1.93429 124593
1.94961 120839
1.96493 117531
1.98024 114515
1.99556 111601
2.01088 108737
2.02619 105369
2.04151 101691
2.05683 97236.4
2.07214 92631.7
2.08746 87932
2.10277 83391
2.11809 79309.7
2.13341 75524.4
2.14872 72347
2.16404 69633.3
2.17936 67365.2
2.19467 65534
2.20999 63941.8
2.22531 62618.7
2.24062 61377.1
2.25594 60302.9
2.27125 59206.1
2.28657 58118.4
2.30189 57102.6
2.3172 56138.8
2.33252 55311.9
2.34784 54512.1
2.36315 53927.6
2.37847 53529.9
2.39379 53142.6
2.4091 53103.5
2.42442 52999.6
2.43973 53140.6
2.45505 53232.8
2.47037 53257.3
2.48568 53422.8
2.501 53647.1
2.51632 54007.2
2.53163 54285.9
2.54695 54549.9
2.56226 54869.4
2.57758 55270.6
2.5929 55687.1
2.60821 56141.9
2.62353 56416.6
2.63885 56641.1
2.65416 56818.4
2.66948 57014.8
2.6848 57426.2
2.70011 57973
2.71543 59001.4
2.73074 60350.3
2.74606 62281.4
2.76138 64833.4
2.77669 68063.9
2.79201 72309.4
2.80733 77292
2.82264 83704.4
2.83796 91350.6
2.85328 100417
2.86859 111289
2.88391 123070
2.89922 136463
2.91454 149992
2.92986 163463
2.94517 176295
2.96049 187501
2.97581 197133
2.99112 204142
3.00644 208664
3.02176 210449
3.03707 209733
3.05239 206755
3.0677 202091
3.08302 195976
3.09834 189074
3.11365 181680
3.12897 173977
3.14429 166195
3.1596 158256
3.17492 150683
3.19024 142945
3.20555 135804
3.22087 128890
3.23618 122216
3.2515 115948
3.26682 109883
3.28213 104338
3.29745 98988.4
3.31277 94194.5
3.32808 89733.7
3.3434 85641.9
3.35872 82220.9
3.37403 79161.2
3.38935 76791.5
3.40466 74849.7
3.41998 73426.2
3.4353 72439.3
3.45061 71781.4
3.46593 71453.2
3.48125 71268.6
3.49656 71249.4
3.51188 71213
3.52719 71228.3
3.54251 71219.7
3.55783 71087.4
3.57314 70837.6
3.58846 70406.6
3.60378 69903.2
3.61909 69401.3
3.63441 68927.3
3.64973 68707.7
3.66504 68647.2
3.68036 68886.8
3.69567 69353.8
3.71099 70097.1
3.72631 71103.9
3.74162 72265.8
3.75694 73570.6
3.77226 74864.8
3.78757 75991.9
3.80289 76877.4
3.81821 77412.7
3.83352 77615.1
3.84884 77466.5
3.86415 76995.5
3.87947 76209.8
3.89479 75239.2
3.9101 74145.6
3.92542 72985.4
3.94074 71947.2
3.95605 71070
3.97137 70481.3
3.98669 70093.9
4.002 70006.6
4.01732 70124.3
4.03263 70478.8
4.04795 71055.5
4.06327 72008.9
4.07858 73289.3
4.0939 74972.3
4.10922 76972.3
4.12453 79294
4.13985 82014.9
4.15517 84874
4.17048 87890.4
4.1858 90759.5
4.20111 93570.4
4.21643 96198.7
4.23175 98513.1
4.24706 100504
4.26238 101985
4.2777 103139
4.29301 103805
4.30833 103992
4.32365 103666
4.33896 102817
4.35428 101376
4.36959 99364
4.38491 96751.3
4.40023 93739.5
4.41554 90256.8
4.43086 86500.2
4.44618 82636.5
4.46149 78652.7
4.47681 74965.1
4.49213 71463.7
4.50744 68358.1
4.52276 65647.4
4.53807 63292.3
4.55339 61401.6
4.56871 59799.4
4.58402 58545.5
4.59934 57535.5
4.61466 56795.8
4.62997 56358
4.64529 56141.7
4.6606 56134.1
4.67592 56298.8
4.69124 56624.6
4.70655 57073.2
4.72187 57587.6
4.73719 58174.5
4.7525 58792.1
4.76782 59394.1
4.78314 60031.8
4.79845 60621.8
4.81377 61206.1
4.82908 61785.6
4.8444 62396.2
4.85972 63042.2
4.87503 63731.8
4.89035 64495.4
4.90567 65345.8
4.92098 66357.6
4.9363 67546.6
4.95162 68911.1
4.96693 70461.9
4.98225 72349.1
4.99756 74754
5.01288 77407.1
5.0282 80159.3
5.04351 82988.9
5.05883 85440.5
5.07415 87511.2
5.08946 89005.7
5.10478 89795.2
5.1201 90136.3
5.13541 89834
5.15073 89343.5
5.16604 88556.6
5.18136 87766
5.19668 87020.7
5.21199 86395.7
5.22731 85738.8
5.24263 85117.4
5.25794 84348.4
5.27326 83501
5.28858 82458.6
5.30389 81366.4
5.31921 80332.8
5.33452 79445.7
5.34984 78699.9
5.36516 78004.6
5.38047 77226.3
5.39579 76199.2
5.41111 74874.1
5.42642 73114.6
5.44174 71067.6
5.45706 68612.1
5.47237 65986
5.48769 63180.4
5.503 60483.7
5.51832 58134.6
5.53364 56113.4
5.54895 54626.1
5.56427 53597.5
5.57959 52937.3
5.5949 52575.5
5.61022 52321.3
5.62553 52162.4
5.64085 51925.8
5.65617 51694
5.67148 51473.9
5.6868 51269.9
5.70212 51044.1
5.71743 50806.1
5.73275 50671
5.74807 50576.6
5.76338 50620.6
5.7787 50801.6
5.79401 51144.2
5.80933 51672.7
5.82465 52281.4
5.83996 53027.4
5.85528 53825.9
5.8706 54698.2
5.88591 55549.4
5.90123 56370.1
5.91655 57104
5.93186 57742.5
5.94718 58169.4
5.96249 58348.4
5.97781 58355.8
5.99313 58132
6.00844 57735.5
6.02376 57107.9
6.03908 56397.3
6.05439 55634.5
6.06971 54890.1
6.08503 54171.1
6.10034 53512.6
6.11566 52967.5
6.13097 52490.3
6.14629 52100.3
6.16161 51797.9
6.17692 51611.3
6.19224 51575.8
6.20756 51632.9
6.22287 51855
6.23819 52210.4
6.25351 52640.7
6.26882 53061.2
6.28414 53389.9
6.29945 53619.6
6.31477 53717.5
6.33009 53678.9
6.3454 53508.8
6.36072 53211.5
6.37604 52859.8
6.39135 52511.2
6.40667 52216.5
6.42199 52007.7
6.4373 51937.1
6.45262 51942
6.46793 52101.8
6.48325 52375.7
6.49857 52770.4
6.51388 53216.5
6.5292 53739.9
6.54452 54304
6.55983 54911
6.57515 55544.3
6.59046 56196
6.60578 56881.2
6.6211 57552.9
6.63641 58234.2
6.65173 58819.2
6.66705 59332.2
6.68236 59743.5
6.69768 60059
6.713 60272.7
6.72831 60347.4
6.74363 60280.7
6.75894 60118.1
6.77426 59892.6
6.78958 59613.3
6.80489 59289.3
6.82021 58901.2
6.83553 58445.4
6.85084 57977
6.86616 57484.2
6.88148 57036.5
6.89679 56579.8
6.91211 56138.9
6.92742 55667.9
6.94274 55231.7
6.95806 54794.1
6.97337 54366.7
6.98869 53948.8
7.00401 53550.7
7.01932 53184.6
7.03464 52811.7
7.04996 52474.1
7.06527 52185.9
7.08059 51975.3
7.0959 51800.8
7.11122 51625.4
7.12654 51493.1
7.14185 51401.3
7.15717 51369.7
7.17249 51372.2
7.1878 51403
7.20312 51502.4
7.21844 51648.1
7.23375 51802.6
7.24907 51978.9
7.26438 52191.3
7.2797 52400.5
7.29502 52598.9
7.31033 52768.8
7.32565 52921.8
7.34097 53001
7.35628 53031.9
7.3716 52974
7.38692 52860.7
7.40223 52700.6
7.41755 52482.6
7.43286 52226.7
7.44818 51893.4
7.4635 51580.9
7.47881 51272
7.49413 51003.9
7.50945 50726.1
7.52476 50475.6
7.54008 50208.3
7.55539 49942.1
7.57071 49638.3
7.58603 49277.6
7.60134 48868
7.61666 48442.4
7.63198 47996.5
7.64729 47575.1
7.66261 47174.9
7.67793 46884.8
7.69324 46702.3
7.70856 46655.7
7.72387 46748
7.73919 46961
7.75451 47257.2
7.76982 47608.6
7.78514 47922.5
7.80046 48196.9
7.81577 48386
7.83109 48447.7
7.84641 48372.1
7.86172 48163.8
7.87704 47855.7
7.89235 47460.9
7.90767 47078
7.92299 46720.2
7.9383 46428.5
7.95362 46191.4
7.96894 46027.5
7.98425 45892
7.99957 45777.2
8.01489 45697
8.0302 45604.4
8.04552 45498.6
8.06083 45413.1
8.07615 45320.8
8.09147 45240.2
8.10678 45155.4
8.1221 45054.2
8.13742 44964
8.15273 44895.4
8.16805 44857.2
8.18337 44832.7
8.19868 44812.7
8.214 44800.4
8.22931 44787.2
8.24463 44782.5
8.25995 44736.7
8.27526 44640.5
8.29058 44501.4
8.3059 44345.6
8.32121 44179.3
8.33653 44018.1
8.35185 43860.5
8.36716 43683
8.38248 43557.7
8.39779 43488
8.41311 43435.7
8.42843 43432.3
8.44374 43478.8
8.45906 43539.6
8.47438 43636.1
8.48969 43753.5
8.50501 43907.1
8.52032 44065.2
8.53564 44229.7
8.55096 44408.3
8.56627 44570.6
8.58159 44750.9
8.59691 44911.2
8.61222 45100.4
8.62754 45275.2
8.64286 45465.3
8.65817 45600.7
8.67349 45743.8
8.6888 45866.3
8.70412 45988.1
8.71944 46164.7
8.73475 46450.8
8.75007 46787.5
8.76539 47177.9
8.7807 47602.6
8.79602 48020.6
8.81134 48398.1
8.82665 48659.1
8.84197 48800.1
8.85728 48812
8.8726 48761.5
8.88792 48662.5
8.90323 48606.5
8.91855 48639.2
8.93387 48814.3
8.94918 49105.8
8.9645 49421.5
8.97982 49710.5
8.99513 49927.1
9.01045 50051.6
9.02576 49986.9
9.04108 49716.7
9.0564 49272.1
9.07171 48697.1
9.08703 48070.8
9.10235 47417.4
9.11766 46825.2
9.13298 46291.7
9.1483 45817.1
9.16361 45428.4
9.17893 45112.3
9.19424 44825.7
9.20956 44554
9.22488 44290.9
9.24019 44041.1
9.25551 43797.6
9.27083 43554.6
9.28614 43306.3
9.30146 43066.2
9.31678 42812.9
9.33209 42580.2
9.34741 42354
9.36272 42150.3
9.37804 41985.4
9.39336 41878.5
9.40867 41785.8
9.42399 41718.5
9.43931 41710.9
9.45462 41772.8
9.46994 41860.3
9.48525 41979.3
9.50057 42146.3
9.51589 42362.1
9.5312 42580.8
9.54652 42761.4
9.56184 42874.9
9.57715 42931.5
9.59247 42875.7
9.60779 42758.7
9.6231 42582.4
9.63842 42402.8
9.65373 42208.7
9.66905 42043
9.68437 41928.8
9.69968 41852.9
9.715 41807.7
9.73032 41802.5
9.74563 41826.8
9.76095 41853.7
9.77627 41917.8
9.79158 41973.4
9.8069 42028.6
9.82221 42064.8
9.83753 42110.7
9.85285 42132.2
9.86816 42138
9.88348 42167.6
9.8988 42215.7
9.91411 42261.8
9.92943 42338.7
9.94475 42419.5
9.96006 42546.7
9.97538 42678.1
9.99069 42841
10.006 42977
10.0213 43101.6
10.0366 43217.3
10.052 43380.5
10.0673 43532.4
10.0826 43702.3
10.0979 43889.7
10.1132 44106.4
10.1285 44374
10.1439 44650.6
10.1592 44926.3
10.1745 45110
10.1898 45244
10.2051 45311
10.2204 45342.6
10.2358 45336.9
10.2511 45327.3
10.2664 45288.6
10.2817 45324.3
10.297 45451.5
10.3123 45651.9
10.3277 45826.3
10.343 45943.1
10.3583 45941.6
10.3736 45844.2
10.3889 45665.2
10.4042 45442.3
10.4196 45165.4
10.4349 44866.8
10.4502 44572.7
10.4655 44309.4
10.4808 44106.3
10.4961 43967.1
10.5115 43853.6
10.5268 43787.1
10.5421 43794.2
10.5574 43822.7
10.5727 43884.6
10.588 43935.7
10.6033 43985.1
10.6187 43998.8
10.634 43944
10.6493 43827.4
10.6646 43651.1
10.6799 43433
10.6952 43200
10.7106 42997.3
10.7259 42816.8
10.7412 42658
10.7565 42536.2
10.7718 42466.2
10.7871 42451.4
10.8025 42471.7
10.8178 42495.5
10.8331 42488.6
10.8484 42436.2
10.8637 42304.4
10.879 42131.6
10.8944 41917.8
10.9097 41682.9
10.925 41442.2
10.9403 41183.1
10.9556 40942.1
10.9709 40757.7
10.9863 40631.8
11.0016 40520.4
11.0169 40374.9
11.0322 40233
11.0475 40073.1
11.0628 39916.5
11.0782 39764
11.0935 39611
11.1088 39481.6
11.1241 39360.7
11.1394 39267.6
11.1547 39178.9
11.1701 39103.1
11.1854 39053.1
11.2007 38973.7
11.216 38887.5
11.2313 38851.6
11.2466 38799.7
11.262 38726.6
11.2773 38680.1
11.2926 38684.3
11.3079 38655.5
11.3232 38618.3
11.3385 38555.8
11.3538 38499.3
11.3692 38444.3
11.3845 38408.4
11.3998 38379.2
11.4151 38346.2
11.4304 38315.4
11.4457 38298
11.4611 38281.6
11.4764 38283.2
11.4917 38322.7
11.507 38369.2
11.5223 38407.4
11.5376 38442.5
11.553 38484.3
11.5683 38515.3
11.5836 38505.3
11.5989 38460.3
11.6142 38401.3
11.6295 38313.7
11.6449 38194.7
11.6602 38066.9
11.6755 37950.4
11.6908 37846.7
11.7061 37760
11.7214 37700.6
11.7368 37683.1
11.7521 37691
11.7674 37720.9
11.7827 37731.6
11.798 37735.2
11.8133 37704.4
11.8287 37651.8
11.844 37582.7
11.8593 37509.4
11.8746 37466.4
11.8899 37439.3
11.9052 37386.7
11.9206 37305.4
11.9359 37244.8
11.9512 37225.5
11.9665 37216.1
11.9818 37217.3
11.9971 37211.1
12.0125 37208.5
12.0278 37177.3
12.0431 37133.2
12.0584 37087.3
12.0737 37043
12.089 37006.7
12.1044 36965.3
12.1197 36921
12.135 36895.9
12.1503 36888.9
12.1656 36850.4
12.1809 36811.5
12.1962 36784.8
12.2116 36780
12.2269 36801.7
12.2422 36833.2
12.2575 36874.5
12.2728 36879.4
12.2881 36879.5
12.3035 36892.8
12.3188 36933.7
12.3341 36945.8
12.3494 36951.1
12.3647 36975.9
12.38 37003.6
12.3954 37014.8
12.4107 37032.5
12.426 37031.1
12.4413 37045.9
12.4566 37071.1
12.4719 37107.3
12.4873 37123.9
12.5026 37108.4
12.5179 37091.5
12.5332 37074.1
12.5485 37068.2
12.5638 37073.4
12.5792 37109.6
12.5945 37148.4
12.6098 37177.6
12.6251 37218.1
12.6404 37266
12.6557 37273.1
12.6711 37269.8
12.6864 37255.1
12.7017 37232.1
12.717 37215.2
12.7323 37216.5
12.7476 37204.5
12.763 37229.6
12.7783 37305.6
12.7936 37390
12.8089 37446.6
12.8242 37501
12.8395 37533.7
12.8549 37571.5
12.8702 37536.9
12.8855 37462
12.9008 37404.7
12.9161 37346.7
12.9314 37259
12.9467 37156.5
12.9621 37114.9
12.9774 37082.7
12.9927 37044
13.008 37017.2
13.0233 37011.3
13.0386 37033.5
13.054 37056.3
13.0693 37030.6
13.0846 37003
13.0999 37024.1
13.1152 37042.5
13.1305 37052
13.1459 37048.1
13.1612 37020.4
13.1765 36980.9
13.1918 36948.9
13.2071 36943.2
13.2224 36932.9
13.2378 36923.3
13.2531 36921.1
13.2684 36952.9
13.2837 36962.6
13.299 36972.6
13.3143 36987
13.3297 36994.7
13.345 37012.8
13.3603 37068.9
13.3756 37145.8
13.3909 37258.1
13.4062 37386.4
13.4216 37542.6
13.4369 37739.6
13.4522 37923.5
13.4675 38095.4
13.4828 38243
13.4981 38356
13.5135 38426.4
13.5288 38458.8
13.5441 38503.2
13.5594 38550.6
13.5747 38600.4
13.59 38623.5
13.6054 38611.5
13.6207 38568.4
13.636 38475.3
13.6513 38317.9
13.6666 38128.4
13.6819 37929.6
13.6973 37728.2
13.7126 37525.4
13.7279 37369
13.7432 37218.8
13.7585 37098.5
13.7738 37001.2
13.7891 36928.4
13.8045 36840.5
13.8198 36782.8
13.8351 36736.3
13.8504 36692
13.8657 36669.1
13.881 36646.6
13.8964 36628.5
13.9117 36646.4
13.927 36650.3
13.9423 36660.4
13.9576 36687.2
13.9729 36688.2
13.9883 36653.6
14.0036 36612.4
14.0189 36532.5
14.0342 36394.5
14.0495 36275
14.0648 36148.6
14.0802 36009
14.0955 35877.4
14.1108 35757.3
14.1261 35628.4
14.1414 35522.4
14.1567 35436.5
14.1721 35387.9
14.1874 35356.5
14.2027 35325.9
14.218 35290.6
14.2333 35246.7
14.2486 35203.1
14.264 35174.1
14.2793 35147.6
14.2946 35063.1
14.3099 35019.6
14.3252 34978
14.3405 34967.2
14.3559 34944.3
14.3712 34934
14.3865 34920.9
14.4018 34911.1
14.4171 34925.2
14.4324 34879.9
14.4478 34814.2
14.4631 34752.3
14.4784 34734.5
14.4937 34731.7
14.509 34751.6
14.5243 34765
14.5397 34772.6
14.555 34770.9
14.5703 34791.7
14.5856 34793.9
14.6009 34784.4
14.6162 34746.2
14.6315 34697.4
14.6469 34649.8
14.6622 34620.9
14.6775 34619.2
14.6928 34596.2
14.7081 34542.6
14.7234 34511
14.7388 34478.1
14.7541 34448
14.7694 34378
14.7847 34308.1
14.8 34257.8
14.8153 34231.6
14.8307 34179.9
14.846 34151.5
14.8613 34134.4
14.8766 34093.1
14.8919 34073.3
14.9072 34047.3
14.9226 34017.7
14.9379 33987.8
14.9532 33935.4
14.9685 33947.7
14.9838 33962.8
14.9991 33972.1
15.0145 33956.7
15.0298 33944.2
15.0451 33924.9
15.0604 33901.5
15.0757 33918.7
15.091 33899.7
15.1064 33873.2
15.1217 33902.9
15.137 33915.9
15.1523 33911.7
15.1676 33941.8
15.1829 33979.5
15.1983 34039.3
15.2136 34081.4
15.2289 34099.7
15.2442 34121.9
15.2595 34147.1
15.2748 34170.4
15.2902 34204.1
15.3055 34232.4
15.3208 34264.1
15.3361 34284.5
15.3514 34313.7
15.3667 34338.8
15.382 34367.7
15.3974 34375.6
15.4127 34397.5
15.428 34383.3
15.4433 34333.4
15.4586 34271.1
15.4739 34216
15.4893 34186.9
15.5046 34145.3
15.5199 34113.6
15.5352 34092.7
15.5505 34067.7
15.5658 34046.5
15.5812 34023
15.5965 34034.7
15.6118 34024.2
15.6271 34003.5
15.6424 33982.6
15.6577 33952.2
15.6731 33938.7
15.6884 33921.5
15.7037 33935
15.719 33913.7
15.7343 33870.9
15.7496 33834.4
15.765 33783.8
15.7803 33753.3
15.7956 33733.9
15.8109 33692.3
15.8262 33664.2
15.8415 33631.6
15.8569 33574.5
15.8722 33513.1
15.8875 33424.6
15.9028 33352.1
15.9181 33342.3
15.9334 33297
15.9488 33259.3
15.9641 33227.5
15.9794 33205.2
15.9947 33176.4
16.01 33118.5
16.0253 33088.1
16.0407 33075.6
16.056 33045.4
16.0713 33024.3
16.0866 32993
16.1019 33003.9
16.1172 33025.4
16.1326 33024.1
16.1479 33004.1
16.1632 33007.1
16.1785 33008.6
16.1938 32996.7
16.2091 32992.2
16.2244 32968.3
16.2398 32929.5
16.2551 32925.4
16.2704 32946.4
16.2857 32967.5
16.301 32962.7
16.3163 32943.9
16.3317 32927.1
16.347 32917.9
16.3623 32914.9
16.3776 32921.3
16.3929 32905.9
16.4082 32861.2
16.4236 32831.5
16.4389 32817.1
16.4542 32797.8
16.4695 32757
16.4848 32719.5
16.5001 32710.2
16.5155 32700.4
16.5308 32665.6
16.5461 32626.4
16.5614 32580.3
16.5767 32543.6
16.592 32481.1
16.6074 32373.2
16.6227 32355.1
16.638 32363.4
16.6533 32365.3
16.6686 32369.4
16.6839 32347.2
16.6993 32302.4
16.7146 32218
16.7299 32167.3
16.7452 32139.2
16.7605 32124
16.7758 32123.6
16.7912 32111.1
16.8065 32086.2
16.8218 32063.8
16.8371 32050.5
16.8524 32029.2
16.8677 32038.6
16.8831 32037.5
16.8984 32024.3
16.9137 31980.6
16.929 31937.6
16.9443 31928.5
16.9596 31929.3
16.9749 31952.5
16.9903 31942.4
17.0056 31887.2
17.0209 31826.1
17.0362 31811.4
17.0515 31804.1
17.0668 31768.6
17.0822 31761.1
17.0975 31741.6
17.1128 31672.2
17.1281 31618.5
17.1434 31600.5
17.1587 31595.4
17.1741 31594.6
17.1894 31591.2
17.2047 31578
17.22 31552.7
17.2353 31530.2
17.2506 31514.8
17.266 31482
17.2813 31460.5
17.2966 31444.3
17.3119 31438.7
17.3272 31422
17.3425 31423
17.3579 31392.5
17.3732 31356.4
17.3885 31357.8
17.4038 31376.2
17.4191 31348.5
17.4344 31337.7
17.4498 31358.1
17.4651 31373.8
17.4804 31381.2
17.4957 31364.9
17.511 31339
17.5263 31301.3
17.5417 31275.4
17.557 31272.5
17.5723 31321
17.5876 31329.4
17.6029 31328.4
17.6182 31328.4
17.6336 31352.2
17.6489 31375
17.6642 31383.7
17.6795 31385.9
17.6948 31387.7
17.7101 31359.5
17.7255 31352.4
17.7408 31384.1
17.7561 31378.1
17.7714 31359.4
17.7867 31355
17.802 31353.4
17.8173 31322.6
17.8327 31297.6
17.848 31276.1
17.8633 31272.5
17.8786 31267.5
17.8939 31248.6
17.9092 31256.6
17.9246 31269.7
17.9399 31291.6
17.9552 31273.4
17.9705 31260.4
17.9858 31259.9
18.0011 31229.6
18.0165 31222.7
18.0318 31214.8
18.0471 31190.4
18.0624 31175.1
18.0777 31153.6
18.093 31167.9
18.1084 31190.1
18.1237 31168.3
18.139 31125.3
18.1543 31094.6
18.1696 31103.1
18.1849 31084.8
18.2003 31059.3
18.2156 31090.2
18.2309 31112.9
18.2462 31099.8
18.2615 31104
18.2768 31114.3
18.2922 31100.7
18.3075 31114.2
18.3228 31131.3
18.3381 31163.9
18.3534 31209.9
18.3687 31242.8
18.3841 31245.5
18.3994 31267.9
18.4147 31290.1
18.43 31297.3
18.4453 31280.3
18.4606 31254.2
18.476 31248.5
18.4913 31241.7
18.5066 31215.8
18.5219 31168.4
18.5372 31118.3
18.5525 31094.2
18.5679 31054
18.5832 31033.7
18.5985 31050.2
18.6138 31045.7
18.6291 31011.7
18.6444 30955.9
18.6597 30916.6
18.6751 30863.4
18.6904 30843.8
18.7057 30831.7
18.721 30815.7
18.7363 30794.4
18.7516 30806.3
18.767 30833.7
18.7823 30804.6
18.7976 30739.5
18.8129 30699.9
18.8282 30675.6
18.8435 30640.4
18.8589 30603.7
18.8742 30571.3
18.8895 30557.6
18.9048 30565.1
18.9201 30528.9
18.9354 30487.7
18.9508 30468.1
18.9661 30437.8
18.9814 30419.9
18.9967 30386.9
19.012 30328.5
19.0273 30338.1
19.0427 30353.1
19.058 30354.2
19.0733 30316.6
19.0886 30259.7
19.1039 30262.5
19.1192 30257.5
19.1346 30260.8
19.1499 30237.7
19.1652 30197
19.1805 30157.6
19.1958 30190.5
19.2111 30204.8
19.2265 30223.5
19.2418 30236
19.2571 30202.8
19.2724 30180.3
19.2877 30179.4
19.303 30150.7
19.3184 30102.1
19.3337 30035.5
19.349 30015.5
19.3643 30010.2
19.3796 29964
19.3949 29942.5
19.4102 29949.8
19.4256 29929.4
19.4409 29905
19.4562 29874.5
19.4715 29842.9
19.4868 29834.6
19.5021 29818.5
19.5175 29813.9
19.5328 29824.2
19.5481 29776.7
19.5634 29736.5
19.5787 29700.8
19.594 29673.2
19.6094 29661.8
19.6247 29650.3
19.64 29669.9
19.6553 29698.2
19.6706 29655.8
19.6859 29623.1
19.7013 29625.3
19.7166 29634
19.7319 29614.6
19.7472 29571.4
19.7625 29554
19.7778 29573.6
19.7932 29574.4
19.8085 29550.8
19.8238 29556.2
19.8391 29562.7
19.8544 29513.4
19.8697 29491
19.8851 29517.4
19.9004 29525.8
19.9157 29462.6
19.931 29439.4
19.9463 29480.9
19.9616 29427.9
19.977 29373.1
19.9923 29426.9
20.0076 29456.8
20.0229 29426.3
20.0382 29411.1
20.0535 29374.5
20.0689 29308.1
20.0842 29277.6
20.0995 29286
20.1148 29292.8
20.1301 29298.2
20.1454 29313.3
20.1608 29337
20.1761 29334
20.1914 29318.9
20.2067 29273.2
20.222 29258.3
20.2373 29311.7
20.2526 29342.4
20.268 29306
20.2833 29285.4
20.2986 29280.6
20.3139 29276.9
20.3292 29258.2
20.3445 29253.4
20.3599 29234.9
20.3752 29229.9
20.3905 29228.2
20.4058 29251.7
20.4211 29269.3
20.4364 29255.8
20.4518 29242.9
20.4671 29230.4
20.4824 29259.9
20.4977 29255.4
20.513 29248.3
20.5283 29317.1
20.5437 29298.2
20.559 29254.7
20.5743 29206.3
20.5896 29189.2
20.6049 29207.3
20.6202 29222.4
20.6356 29214.6
20.6509 29259.7
20.6662 29251.8
20.6815 29205.4
20.6968 29179.7
20.7121 29139.1
20.7275 29106.7
20.7428 29142.1
20.7581 29146.8
20.7734 29136.8
20.7887 29120.8
20.804 29091.8
20.8194 29116.6
20.8347 29146.9
20.85 29169.2
20.8653 29141
20.8806 29077
20.8959 29099.3
20.9113 29098.6
20.9266 29076.6
20.9419 29063.7
20.9572 29049.6
20.9725 29050.2
20.9878 29021.9
21.0031 29022.6
21.0185 29061.7
21.0338 29035.3
21.0491 29055.4
21.0644 29080.5
21.0797 29054.7
21.095 29053.4
21.1104 29070.3
21.1257 29069.2
21.141 29072.6
21.1563 29054.2
21.1716 29075.2
21.1869 29086
21.2023 29059.3
21.2176 29058.7
21.2329 29009.9
21.2482 29007
21.2635 29031.5
21.2788 29036.4
21.2942 29013.2
21.3095 28962.4
21.3248 29002.8
21.3401 29024.4
21.3554 29036.2
21.3707 28965.6
21.3861 28954.8
21.4014 28931.3
21.4167 28929.4
21.432 28939.7
21.4473 28994
21.4626 28977.8
21.478 28968
21.4933 28986.8
21.5086 28980
21.5239 28998.4
21.5392 29006.8
21.5545 28963.9
21.5699 28953.3
21.5852 28953.6
21.6005 28961.8
21.6158 28981.5
21.6311 28933.9
21.6464 28919.9
21.6618 28937.7
21.6771 28937.1
21.6924 28954.9
21.7077 28927.9
21.723 28914.5
21.7383 28958.5
21.7537 28953
21.769 28942.3
21.7843 28977.1
21.7996 28989.2
21.8149 29007.1
21.8302 28964.6
21.8455 28974.8
21.8609 28971.9
21.8762 28961.3
21.8915 28962
21.9068 28968.7
21.9221 28985.9
21.9374 29008.8
21.9528 28970.3
21.9681 28945.5
21.9834 28997.8
21.9987 29024.2
22.014 29011.6
22.0293 29046
22.0447 29080.9
22.06 29086.5
22.0753 29076.5
22.0906 29037.4
22.1059 29072.5
22.1212 29129.5
22.1366 29140.6
22.1519 29132.3
22.1672 29112.6
22.1825 29102.6
22.1978 29137.3
22.2131 29155.8
22.2285 29132.5
22.2438 29131.3
22.2591 29132.1
22.2744 29097.8
22.2897 29059.3
22.305 29105.2
22.3204 29181.9
22.3357 29190.3
22.351 29184.2
22.3663 29186.9
22.3816 29203.2
22.3969 29246.3
22.4123 29228.4
22.4276 29203.5
22.4429 29197.4
22.4582 29199.7
22.4735 29216.8
22.4888 29244.1
22.5042 29222.8
22.5195 29206.8
22.5348 29168.5
22.5501 29182.2
22.5654 29201.3
22.5807 29230.6
22.596 29268.2
22.6114 29310.9
22.6267 29279.6
22.642 29258.8
22.6573 29237
22.6726 29226.2
22.6879 29271.8
22.7033 29290.4
22.7186 29271.5
22.7339 29241.7
22.7492 29232.2
22.7645 29255
22.7798 29271.8
22.7952 29276.7
22.8105 29306.3
22.8258 29310.6
22.8411 29250.5
22.8564 29305.9
22.8717 29327.1
22.8871 29301.4
22.9024 29346.6
22.9177 29303.2
22.933 29299
22.9483 29327.7
22.9636 29363.4
22.979 29334.4
22.9943 29296
