# xPDFsuite Configuration #
[PDF]
wavelength = 0.1
dataformat = QA
inputfile = B3_Bronze-3nm_ss_25.chi
backgroundfile = B3_Li-bkg_ss.chi
mode = xray
bgscale = 0.98705
composition = Ti O2
outputtype = iq
qmaxinst = 23.0
qmin = 0.1
qmax = 23.0
rmax = 30.0
rmin = 0.0
rstep = 0.01
rpoly = 0.9

[Misc]
inputdir = E:/Beamtime/PETRA-III_September-2019/BeamData/processed/Run1/B3/chi/chi_w_sigmas/chi_scaled
savedir = E:/Beamtime/PETRA-III_September-2019/BeamData/processed/Run1/B3
backgroundfilefull = E:/Beamtime/PETRA-III_September-2019/BeamData/processed/Run1/B3/chi/chi_w_sigmas/chi_scaled/B3_Li-bkg_ss.chi

#### start data
#S 1
#L Q($\AA^{-1}$)  intensity(a.u.)
0.111649 0
0.126965 0
0.142282 0
0.157598 0
0.172914 0
0.188231 0
0.203547 0
0.218864 0
0.23418 0
0.249496 0
0.264813 0
0.280129 0
0.295445 0
0.310762 0
0.326078 0
0.341394 0
0.356711 0
0.372027 0
0.387343 0
0.40266 0
0.417976 0
0.433292 0
0.448609 0
0.463925 0
0.479241 0
0.494558 0
0.509874 0
0.525191 0
0.540507 0
0.555823 0
0.57114 0
0.586456 0
0.601772 0
0.617089 0
0.632405 0
0.647721 0
0.663038 0
0.678354 0
0.69367 0
0.708987 0
0.724303 0
0.739619 0
0.754936 0
0.770252 0
0.785568 0
0.800885 0
0.816201 0
0.831518 0
0.846834 0
0.86215 1.54897
0.877467 111211
0.892783 112117
0.908099 112765
0.923416 114396
0.938732 116650
0.954048 118743
0.969365 119934
0.984681 119942
0.999997 118160
1.01531 114993
1.03063 109391
1.04595 102667
1.06126 94552.4
1.07658 85169.3
1.0919 75907.6
1.10721 65647.4
1.12253 56427.8
1.13784 47320.9
1.15316 39029.3
1.16848 31926.2
1.18379 25200
1.19911 19912.7
1.21443 15098
1.22974 11274.5
1.24506 8200.87
1.26038 5756.97
1.27569 4107.18
1.29101 3090.36
1.30632 2622.16
1.32164 2825.93
1.33696 3511.08
1.35227 4706.55
1.36759 6289.27
1.38291 8018.82
1.39822 10098.7
1.41354 12072.1
1.42886 14082.4
1.44417 16057.5
1.45949 17998.4
1.4748 20069.3
1.49012 22369.3
1.50544 25328.3
1.52075 29037.4
1.53607 33884.4
1.55139 40172.7
1.5667 47331.4
1.58202 56150.8
1.59733 65522.4
1.61265 75601.9
1.62797 85935.4
1.64328 95433.3
1.6586 104518
1.67392 111760
1.68923 117482
1.70455 121389
1.71987 123728
1.73518 124901
1.7505 125271
1.76581 125587
1.78113 125719
1.79645 126167
1.81176 126586
1.82708 126872
1.8424 126492
1.85771 125685
1.87303 124221
1.88835 122150
1.90366 119562
1.91898 116547
1.93429 113342
1.94961 110129
1.96493 107286
1.98024 104747
1.99556 102357
2.01088 100015
2.02619 97216.2
2.04151 93994
2.05683 90057
2.07214 85918.7
2.08746 81754
2.10277 77624.9
2.11809 73991.7
2.13341 70647.8
2.14872 67872.8
2.16404 65515.7
2.17936 63512
2.19467 61879.7
2.20999 60441.2
2.22531 59254.7
2.24062 58094.5
2.25594 57030.6
2.27125 56004.2
2.28657 54976.3
2.30189 54086.8
2.3172 53200.9
2.33252 52436
2.34784 51805.6
2.36315 51405.2
2.37847 51131.3
2.39379 50881.5
2.4091 50932.7
2.42442 50890.2
2.43973 51132.4
2.45505 51321.4
2.47037 51574.3
2.48568 51972.5
2.501 52355.4
2.51632 52825.1
2.53163 53147.4
2.54695 53500.4
2.56226 53822.5
2.57758 54259.4
2.5929 54639.6
2.60821 55044.1
2.62353 55363.2
2.63885 55605.1
2.65416 55774.1
2.66948 55976.4
2.6848 56275.1
2.70011 56778.5
2.71543 57725.8
2.73074 58991.1
2.74606 60810.3
2.76138 63199.2
2.77669 66331.9
2.79201 70439.8
2.80733 75269.2
2.82264 81518.9
2.83796 88973.2
2.85328 97771.6
2.86859 108324
2.88391 119787
2.89922 132970
2.91454 146419
2.92986 160018
2.94517 173063
2.96049 184657
2.97581 194771
2.99112 202371
3.00644 207517
3.02176 209885
3.03707 209699
3.05239 207181
3.0677 202850
3.08302 196895
3.09834 189890
3.11365 182120
3.12897 173915
3.14429 165524
3.1596 156905
3.17492 148639
3.19024 140171
3.20555 132406
3.22087 124969
3.23618 117902
3.2515 111377
3.26682 105182
3.28213 99605.7
3.29745 94320.6
3.31277 89623.9
3.32808 85385.2
3.3434 81517.4
3.35872 78272.2
3.37403 75368.9
3.38935 73154.2
3.40466 71337.4
3.41998 70014.7
3.4353 69076.1
3.45061 68506
3.46593 68256.4
3.48125 68151.7
3.49656 68168.8
3.51188 68203.7
3.52719 68284.6
3.54251 68354.2
3.55783 68247.5
3.57314 68025.6
3.58846 67661.9
3.60378 67293.8
3.61909 67031
3.63441 66727
3.64973 66535.8
3.66504 66446.8
3.68036 66710.8
3.69567 67179.3
3.71099 67968.4
3.72631 68956.2
3.74162 70101.8
3.75694 71322.5
3.77226 72463.6
3.78757 73429.2
3.80289 74156.6
3.81821 74611.3
3.83352 74729.8
3.84884 74562.5
3.86415 74113.3
3.87947 73385.2
3.89479 72479.3
3.9101 71474.5
3.92542 70490
3.94074 69626.6
3.95605 68901.3
3.97137 68474.2
3.98669 68195.3
4.002 68197.3
4.01732 68385.7
4.03263 68822.5
4.04795 69465
4.06327 70459.3
4.07858 71756.4
4.0939 73472
4.10922 75562.2
4.12453 78018.5
4.13985 80888.3
4.15517 83948.2
4.17048 87230.3
4.1858 90393.5
4.20111 93564.5
4.21643 96588.4
4.23175 99310.2
4.24706 101708
4.26238 103554
4.2777 105009
4.29301 105816
4.30833 105992
4.32365 105514
4.33896 104414
4.35428 102682
4.36959 100309
4.38491 97313.9
4.40023 93935
4.41554 90078.6
4.43086 85988.2
4.44618 81882.6
4.46149 77698.9
4.47681 73829
4.49213 70227.6
4.50744 67064.3
4.52276 64340.4
4.53807 61968.3
4.55339 60067
4.56871 58480.8
4.58402 57269.4
4.59934 56303.9
4.61466 55610.2
4.62997 55183.6
4.64529 54976.5
4.6606 54951.9
4.67592 55109.8
4.69124 55395.7
4.70655 55871
4.72187 56412.3
4.73719 57005.7
4.7525 57620
4.76782 58222.8
4.78314 58841.6
4.79845 59372.7
4.81377 59884.7
4.82908 60379.9
4.8444 60893.6
4.85972 61459.6
4.87503 62087.4
4.89035 62795.3
4.90567 63619.9
4.92098 64580.9
4.9363 65735.1
4.95162 67081
4.96693 68637.1
4.98225 70538.8
4.99756 72926.4
5.01288 75535.1
5.0282 78214.8
5.04351 80956.5
5.05883 83290.8
5.07415 85202.8
5.08946 86537
5.10478 87161.7
5.1201 87390.9
5.13541 86993.1
5.15073 86409.6
5.16604 85536.6
5.18136 84667.7
5.19668 83926.1
5.21199 83373.9
5.22731 82871.5
5.24263 82395.2
5.25794 81746.7
5.27326 80969.7
5.28858 80016
5.30389 78979.8
5.31921 77980.9
5.33452 77069.4
5.34984 76313.5
5.36516 75584.9
5.38047 74782.2
5.39579 73741.4
5.41111 72418.5
5.42642 70710.3
5.44174 68705.3
5.45706 66270.2
5.47237 63634.4
5.48769 60838.3
5.503 58156.9
5.51832 55842.4
5.53364 53862.5
5.54895 52390.3
5.56427 51344.4
5.57959 50647.4
5.5949 50267.8
5.61022 49994.5
5.62553 49841.2
5.64085 49668.6
5.65617 49472
5.67148 49256.9
5.6868 49050.1
5.70212 48853.3
5.71743 48655.8
5.73275 48537
5.74807 48468.6
5.76338 48528.8
5.7787 48713.6
5.79401 49011.4
5.80933 49512.3
5.82465 50111
5.83996 50854.5
5.85528 51627.9
5.8706 52475.9
5.88591 53304.1
5.90123 54120.5
5.91655 54856.3
5.93186 55493.5
5.94718 55947.7
5.96249 56171.2
5.97781 56210.2
5.99313 56010.8
6.00844 55648.6
6.02376 55099.5
6.03908 54448.7
6.05439 53721.3
6.06971 52989.8
6.08503 52298.7
6.10034 51644.2
6.11566 51101.5
6.13097 50652
6.14629 50303.5
6.16161 50072.5
6.17692 49932.3
6.19224 49896.1
6.20756 49947.1
6.22287 50145.6
6.23819 50447.9
6.25351 50828.1
6.26882 51256.9
6.28414 51605.4
6.29945 51825.6
6.31477 51896.9
6.33009 51827.8
6.3454 51616.6
6.36072 51302.3
6.37604 50927.1
6.39135 50568.5
6.40667 50273.4
6.42199 50065.4
6.4373 49988.3
6.45262 50034.5
6.46793 50236.7
6.48325 50549.3
6.49857 50943.6
6.51388 51401
6.5292 51922.2
6.54452 52492.2
6.55983 53067.6
6.57515 53688.6
6.59046 54319.4
6.60578 55008.9
6.6211 55699.9
6.63641 56394.4
6.65173 57009.2
6.66705 57555.4
6.68236 58015.6
6.69768 58378.9
6.713 58646.1
6.72831 58769.5
6.74363 58762
6.75894 58635.7
6.77426 58419.9
6.78958 58124.3
6.80489 57781.1
6.82021 57389.5
6.83553 56984.9
6.85084 56552.2
6.86616 56100.1
6.88148 55636.3
6.89679 55179.1
6.91211 54708.5
6.92742 54206.2
6.94274 53704.6
6.95806 53194
6.97337 52690.1
6.98869 52209.2
7.00401 51749.3
7.01932 51331.8
7.03464 50921.6
7.04996 50520.2
7.06527 50172.4
7.08059 49898.8
7.0959 49687
7.11122 49506.1
7.12654 49362.1
7.14185 49272.1
7.15717 49237.2
7.17249 49234.1
7.1878 49272.9
7.20312 49381.2
7.21844 49535
7.23375 49737.4
7.24907 49976.9
7.26438 50232.6
7.2797 50485.9
7.29502 50732.4
7.31033 50944.3
7.32565 51138.6
7.34097 51289.2
7.35628 51372.5
7.3716 51348.6
7.38692 51257.7
7.40223 51114.9
7.41755 50954.6
7.43286 50741.9
7.44818 50463.8
7.4635 50155.8
7.47881 49857.1
7.49413 49582.1
7.50945 49301.2
7.52476 49036.5
7.54008 48772
7.55539 48453.9
7.57071 48095.5
7.58603 47684.9
7.60134 47250.9
7.61666 46774.9
7.63198 46315.7
7.64729 45865.9
7.66261 45453.6
7.67793 45125.5
7.69324 44911.9
7.70856 44838.7
7.72387 44901.9
7.73919 45051.7
7.75451 45291.4
7.76982 45589.5
7.78514 45905.2
7.80046 46162.6
7.81577 46339.1
7.83109 46407.1
7.84641 46347.2
7.86172 46148.2
7.87704 45830
7.89235 45460.8
7.90767 45088.5
7.92299 44758.5
7.9383 44475.4
7.95362 44266.1
7.96894 44118.2
7.98425 43994.1
7.99957 43920.1
8.01489 43880.6
8.0302 43857.4
8.04552 43785.8
8.06083 43722.8
8.07615 43627.4
8.09147 43546.3
8.10678 43475.7
8.1221 43406.8
8.13742 43324.2
8.15273 43249.4
8.16805 43178.6
8.18337 43127.1
8.19868 43092
8.214 43043.8
8.22931 42992.2
8.24463 42968.3
8.25995 42884.2
8.27526 42770.4
8.29058 42599.6
8.3059 42471.5
8.32121 42325.1
8.33653 42186.4
8.35185 42030.3
8.36716 41872.1
8.38248 41760.4
8.39779 41714.3
8.41311 41705.9
8.42843 41722.1
8.44374 41807.5
8.45906 41897.8
8.47438 41996.1
8.48969 42111.3
8.50501 42283.7
8.52032 42442.5
8.53564 42607.8
8.55096 42800
8.56627 43009.6
8.58159 43227.8
8.59691 43411.2
8.61222 43600.7
8.62754 43759.3
8.64286 43904
8.65817 44010.9
8.67349 44116.7
8.6888 44193.3
8.70412 44306.7
8.71944 44462
8.73475 44695.3
8.75007 44977.7
8.76539 45309.8
8.7807 45692.8
8.79602 46047
8.81134 46346.4
8.82665 46574.3
8.84197 46697
8.85728 46705.9
8.8726 46646.4
8.88792 46562.4
8.90323 46498.1
8.91855 46525.1
8.93387 46675.5
8.94918 46950.7
8.9645 47289
8.97982 47610
8.99513 47847.2
9.01045 47992.7
9.02576 47983.5
9.04108 47799.5
9.0564 47453.8
9.07171 46956
9.08703 46356.9
9.10235 45720.4
9.11766 45137.4
9.13298 44629
9.1483 44192
9.16361 43816.9
9.17893 43505.9
9.19424 43232
9.20956 42985.1
9.22488 42716
9.24019 42443.9
9.25551 42146.6
9.27083 41859.6
9.28614 41561.9
9.30146 41289.2
9.31678 41027.2
9.33209 40812.8
9.34741 40610.2
9.36272 40412.6
9.37804 40218.1
9.39336 40093.1
9.40867 40002
9.42399 39959.1
9.43931 39975.2
9.45462 40043.4
9.46994 40137.5
9.48525 40257.8
9.50057 40451.3
9.51589 40666.9
9.5312 40894.8
9.54652 41081.8
9.56184 41220.1
9.57715 41248.5
9.59247 41184.3
9.60779 41062.4
9.6231 40906.5
9.63842 40729.9
9.65373 40532.9
9.66905 40354.2
9.68437 40206.3
9.69968 40112.1
9.715 40056.5
9.73032 40051.8
9.74563 40064.8
9.76095 40110.1
9.77627 40168.3
9.79158 40220.5
9.8069 40276.5
9.82221 40316.8
9.83753 40356.5
9.85285 40355
9.86816 40359.2
9.88348 40382.5
9.8988 40439.2
9.91411 40484.8
9.92943 40577.5
9.94475 40658.8
9.96006 40773.1
9.97538 40899.9
9.99069 41048.2
10.006 41182.3
10.0213 41316
10.0366 41452.6
10.052 41602.4
10.0673 41750.2
10.0826 41905.4
10.0979 42075
10.1132 42231.5
10.1285 42474.6
10.1439 42754.3
10.1592 43062.2
10.1745 43267.2
10.1898 43384.2
10.2051 43412.1
10.2204 43387.6
10.2358 43329.6
10.2511 43282.1
10.2664 43248.6
10.2817 43292.9
10.297 43395.4
10.3123 43574.9
10.3277 43726.4
10.343 43849.9
10.3583 43860.9
10.3736 43792.3
10.3889 43621.7
10.4042 43373.2
10.4196 43081.8
10.4349 42789.4
10.4502 42487.5
10.4655 42236.2
10.4808 42058.2
10.4961 41922.5
10.5115 41826.8
10.5268 41777.9
10.5421 41788.6
10.5574 41820.3
10.5727 41851.1
10.588 41875.8
10.6033 41910
10.6187 41927.3
10.634 41899
10.6493 41814
10.6646 41659.7
10.6799 41455.6
10.6952 41228.9
10.7106 41014.7
10.7259 40838.2
10.7412 40698.7
10.7565 40585.2
10.7718 40508.6
10.7871 40469.2
10.8025 40472.3
10.8178 40494.8
10.8331 40514.1
10.8484 40471.6
10.8637 40346.7
10.879 40182.7
10.8944 39962.6
10.9097 39721.1
10.925 39486.9
10.9403 39261.1
10.9556 39048.4
10.9709 38878.9
10.9863 38748.1
11.0016 38639.7
11.0169 38533.2
11.0322 38397.4
11.0475 38260.2
11.0628 38128.7
11.0782 37990
11.0935 37830.2
11.1088 37687.5
11.1241 37571.2
11.1394 37487.4
11.1547 37434
11.1701 37387.6
11.1854 37325.5
11.2007 37231
11.216 37156.5
11.2313 37098.4
11.2466 37020.9
11.262 36945.7
11.2773 36918.9
11.2926 36927
11.3079 36913.4
11.3232 36891.4
11.3385 36842.6
11.3538 36813.6
11.3692 36766.5
11.3845 36734
11.3998 36703.7
11.4151 36681.3
11.4304 36674.5
11.4457 36651.8
11.4611 36635.2
11.4764 36608.7
11.4917 36627.1
11.507 36651.7
11.5223 36702.6
11.5376 36753.4
11.553 36790.7
11.5683 36806.2
11.5836 36783.7
11.5989 36714
11.6142 36639.7
11.6295 36552.7
11.6449 36471.5
11.6602 36369
11.6755 36275.2
11.6908 36173.1
11.7061 36093.5
11.7214 36009.7
11.7368 35955.1
11.7521 35941.4
11.7674 35967.3
11.7827 35970.8
11.798 35945.9
11.8133 35900.8
11.8287 35843.5
11.844 35786
11.8593 35720.9
11.8746 35662.5
11.8899 35627.6
11.9052 35555.7
11.9206 35488
11.9359 35452.9
11.9512 35423
11.9665 35421
11.9818 35427.1
11.9971 35417.2
12.0125 35412.2
12.0278 35362.3
12.0431 35322.8
12.0584 35298.1
12.0737 35261.3
12.089 35229.4
12.1044 35198
12.1197 35169.9
12.135 35152.6
12.1503 35149.9
12.1656 35127.5
12.1809 35096.2
12.1962 35098.6
12.2116 35089.9
12.2269 35092.7
12.2422 35100.1
12.2575 35121
12.2728 35100.1
12.2881 35129.5
12.3035 35182.5
12.3188 35226.4
12.3341 35226.2
12.3494 35222.4
12.3647 35228.9
12.38 35250.5
12.3954 35274.5
12.4107 35305
12.426 35330.3
12.4413 35376.9
12.4566 35411.9
12.4719 35428.3
12.4873 35423.2
12.5026 35409.1
12.5179 35394.2
12.5332 35381.4
12.5485 35399.6
12.5638 35427.7
12.5792 35441.1
12.5945 35458.3
12.6098 35457.9
12.6251 35492.6
12.6404 35526.6
12.6557 35545.7
12.6711 35563.8
12.6864 35567.4
12.7017 35557.8
12.717 35540.1
12.7323 35536.9
12.7476 35531.4
12.763 35543
12.7783 35603.2
12.7936 35687.4
12.8089 35767.1
12.8242 35838.9
12.8395 35868.7
12.8549 35878.1
12.8702 35844.4
12.8855 35767.2
12.9008 35710.2
12.9161 35647.3
12.9314 35574.9
12.9467 35482.4
12.9621 35428.9
12.9774 35368.6
12.9927 35327.6
13.008 35314
13.0233 35307.1
13.0386 35300.7
13.054 35326.7
13.0693 35318.8
13.0846 35322.4
13.0999 35333.9
13.1152 35335.2
13.1305 35315.2
13.1459 35276.5
13.1612 35277.5
13.1765 35219.1
13.1918 35174.4
13.2071 35158.2
13.2224 35172.3
13.2378 35159
13.2531 35146.8
13.2684 35152.2
13.2837 35135.9
13.299 35133.1
13.3143 35139.8
13.3297 35130.3
13.345 35160.3
13.3603 35218.5
13.3756 35311.1
13.3909 35414.9
13.4062 35531.5
13.4216 35695.8
13.4369 35888.2
13.4522 36065.3
13.4675 36229.4
13.4828 36343.8
13.4981 36442.6
13.5135 36496.9
13.5288 36530.6
13.5441 36574.1
13.5594 36623.4
13.5747 36685.6
13.59 36711.7
13.6054 36716.4
13.6207 36680
13.636 36546.5
13.6513 36371.7
13.6666 36202
13.6819 36009.2
13.6973 35798.6
13.7126 35608.4
13.7279 35472.4
13.7432 35349.4
13.7585 35264.9
13.7738 35176.5
13.7891 35113
13.8045 35036.3
13.8198 34983.6
13.8351 34936.2
13.8504 34912.6
13.8657 34892
13.881 34875.7
13.8964 34895.8
13.9117 34917.5
13.927 34900.7
13.9423 34895
13.9576 34940.6
13.9729 34958.9
13.9883 34938.7
14.0036 34871.2
14.0189 34779.3
14.0342 34629.1
14.0495 34479.1
14.0648 34359.8
14.0802 34255.1
14.0955 34126.4
14.1108 34015
14.1261 33906.3
14.1414 33815.7
14.1567 33726.9
14.1721 33652
14.1874 33582.6
14.2027 33531.3
14.218 33497
14.2333 33475.8
14.2486 33451.9
14.264 33439.1
14.2793 33432.3
14.2946 33378.1
14.3099 33304.5
14.3252 33236.7
14.3405 33176.2
14.3559 33155.6
14.3712 33138.6
14.3865 33121.4
14.4018 33110.7
14.4171 33104.6
14.4324 33079.2
14.4478 33052.1
14.4631 32986.6
14.4784 32956
14.4937 32943.2
14.509 32951.8
14.5243 32970.2
14.5397 32981.5
14.555 32995.6
14.5703 33017.5
14.5856 33013.6
14.6009 33018.1
14.6162 32981
14.6315 32928.1
14.6469 32884.1
14.6622 32857.2
14.6775 32829.2
14.6928 32830.1
14.7081 32807.7
14.7234 32789.7
14.7388 32760.5
14.7541 32695.5
14.7694 32619.3
14.7847 32561
14.8 32511.9
14.8153 32477.3
14.8307 32452.5
14.846 32436.1
14.8613 32424.1
14.8766 32391.2
14.8919 32353.3
14.9072 32314
14.9226 32263.8
14.9379 32219.1
14.9532 32194.4
14.9685 32213.1
14.9838 32231.1
14.9991 32229.8
15.0145 32225.7
15.0298 32226.5
15.0451 32216
15.0604 32208.9
15.0757 32197.4
15.091 32172.6
15.1064 32162.1
15.1217 32171.4
15.137 32149.9
15.1523 32148.7
15.1676 32193.1
15.1829 32229.6
15.1983 32239.5
15.2136 32268.4
15.2289 32294.3
15.2442 32347.2
15.2595 32380.4
15.2748 32395.8
15.2902 32417.2
15.3055 32448.8
15.3208 32507.7
15.3361 32549.3
15.3514 32569.2
15.3667 32595.4
15.382 32630.2
15.3974 32651
15.4127 32642.9
15.428 32585.6
15.4433 32541
15.4586 32520.1
15.4739 32477.2
15.4893 32424.7
15.5046 32396.7
15.5199 32365.4
15.5352 32338.6
15.5505 32296.2
15.5658 32275.2
15.5812 32262.5
15.5965 32251.3
15.6118 32222.7
15.6271 32198.8
15.6424 32190.3
15.6577 32201.1
15.6731 32198.9
15.6884 32195.5
15.7037 32193
15.719 32160.1
15.7343 32128.7
15.7496 32099.7
15.765 32050.2
15.7803 32030.6
15.7956 32022.1
15.8109 32009.3
15.8262 31983.2
15.8415 31934.3
15.8569 31872
15.8722 31795.4
15.8875 31723.7
15.9028 31658
15.9181 31621.7
15.9334 31556.7
15.9488 31496.1
15.9641 31450.4
15.9794 31438.5
15.9947 31437.9
16.01 31403.9
16.0253 31388.4
16.0407 31380.2
16.056 31355.2
16.0713 31308.8
16.0866 31277.7
16.1019 31280.3
16.1172 31294.8
16.1326 31309.1
16.1479 31324.2
16.1632 31327.5
16.1785 31320.3
16.1938 31323.7
16.2091 31322.2
16.2244 31299.9
16.2398 31262.5
16.2551 31243
16.2704 31246.9
16.2857 31278.7
16.301 31272.4
16.3163 31250.4
16.3317 31220.6
16.347 31216.1
16.3623 31237.9
16.3776 31220.2
16.3929 31181.1
16.4082 31145.9
16.4236 31144.3
16.4389 31136.3
16.4542 31098.8
16.4695 31036.7
16.4848 31008
16.5001 31008.1
16.5155 30992.7
16.5308 30969.4
16.5461 30931.3
16.5614 30907.2
16.5767 30882.6
16.592 30835.1
16.6074 30757.9
16.6227 30713.6
16.638 30704.2
16.6533 30700.9
16.6686 30667
16.6839 30616.1
16.6993 30584.7
16.7146 30552.6
16.7299 30510.1
16.7452 30489.9
16.7605 30481.7
16.7758 30455.4
16.7912 30420.2
16.8065 30379.1
16.8218 30366.5
16.8371 30349.1
16.8524 30335.6
16.8677 30356.7
16.8831 30347.7
16.8984 30301.9
16.9137 30232.5
16.929 30202.2
16.9443 30210.1
16.9596 30226.1
16.9749 30256.8
16.9903 30252.2
17.0056 30228.2
17.0209 30186.7
17.0362 30152.7
17.0515 30147.3
17.0668 30110.8
17.0822 30073.6
17.0975 30043.4
17.1128 30013.3
17.1281 30005.2
17.1434 29984.4
17.1587 29952.8
17.1741 29938.9
17.1894 29934
17.2047 29930.1
17.22 29894.4
17.2353 29856.1
17.2506 29836.9
17.266 29781.6
17.2813 29749.6
17.2966 29737.6
17.3119 29717.5
17.3272 29703.4
17.3425 29706.9
17.3579 29699.3
17.3732 29688.7
17.3885 29692.3
17.4038 29714.5
17.4191 29723.3
17.4344 29709.9
17.4498 29682.6
17.4651 29677.4
17.4804 29676.2
17.4957 29669.3
17.511 29663.7
17.5263 29634
17.5417 29585.6
17.557 29572
17.5723 29597.9
17.5876 29623.9
17.6029 29640.1
17.6182 29641
17.6336 29650.2
17.6489 29661.3
17.6642 29683.1
17.6795 29707.3
17.6948 29734.8
17.7101 29718.8
17.7255 29703.4
17.7408 29702.1
17.7561 29671
17.7714 29625.1
17.7867 29610
17.802 29649.2
17.8173 29629.9
17.8327 29592
17.848 29584.4
17.8633 29596.9
17.8786 29587.5
17.8939 29556.8
17.9092 29546
17.9246 29552.4
17.9399 29552
17.9552 29534.9
17.9705 29529.8
17.9858 29515.9
18.0011 29484.4
18.0165 29473.7
18.0318 29461.5
18.0471 29464.4
18.0624 29442.9
18.0777 29424.5
18.093 29455.2
18.1084 29506.6
18.1237 29521.8
18.139 29493
18.1543 29442.6
18.1696 29431.7
18.1849 29396.8
18.2003 29360.1
18.2156 29363.6
18.2309 29369.2
18.2462 29368.7
18.2615 29401.5
18.2768 29408.9
18.2922 29371.7
18.3075 29387.9
18.3228 29409.1
18.3381 29434.7
18.3534 29494.5
18.3687 29497.3
18.3841 29488.6
18.3994 29533.8
18.4147 29548.1
18.43 29557.2
18.4453 29566.2
18.4606 29558.4
18.476 29547.7
18.4913 29495
18.5066 29433.6
18.5219 29416.5
18.5372 29376
18.5525 29350.3
18.5679 29322
18.5832 29281.1
18.5985 29266.8
18.6138 29266.6
18.6291 29241.1
18.6444 29207
18.6597 29180.8
18.6751 29166.1
18.6904 29187.9
18.7057 29182.3
18.721 29138.8
18.7363 29098.6
18.7516 29109.3
18.767 29112.9
18.7823 29063.8
18.7976 28976.2
18.8129 28955
18.8282 28958.9
18.8435 28940.6
18.8589 28897.3
18.8742 28876.2
18.8895 28864.7
18.9048 28896
18.9201 28858.4
18.9354 28812.8
18.9508 28792
18.9661 28762.8
18.9814 28741.5
18.9967 28702.8
19.012 28657.5
19.0273 28659.3
19.0427 28662.6
19.058 28639.9
19.0733 28605.3
19.0886 28545.1
19.1039 28519.4
19.1192 28502.4
19.1346 28516.4
19.1499 28525.3
19.1652 28536.8
19.1805 28501.4
19.1958 28527.2
19.2111 28535.2
19.2265 28530.7
19.2418 28536
19.2571 28514
19.2724 28470.3
19.2877 28422.6
19.303 28401.2
19.3184 28395.2
19.3337 28356.6
19.349 28331.2
19.3643 28289.7
19.3796 28241.1
19.3949 28245.1
19.4102 28255.5
19.4256 28244
19.4409 28207.5
19.4562 28176.9
19.4715 28173.7
19.4868 28160
19.5021 28115
19.5175 28110.5
19.5328 28118.4
19.5481 28090.6
19.5634 28077.1
19.5787 28074.7
19.594 28035.5
19.6094 28040.8
19.6247 28050.7
19.64 28008.2
19.6553 27999.8
19.6706 27996.5
19.6859 27970.7
19.7013 27965.4
19.7166 27979.3
19.7319 27977.9
19.7472 27923.1
19.7625 27898.7
19.7778 27900.9
19.7932 27919.2
19.8085 27907.5
19.8238 27892.5
19.8391 27880.4
19.8544 27882.1
19.8697 27884.6
19.8851 27879.4
19.9004 27881
19.9157 27843.5
19.931 27787.8
19.9463 27774.7
19.9616 27787.3
19.977 27787.2
19.9923 27779.4
20.0076 27781.8
20.0229 27782.8
20.0382 27766
20.0535 27727.2
20.0689 27696.9
20.0842 27684.8
20.0995 27635.4
20.1148 27614.5
20.1301 27602
20.1454 27589.3
20.1608 27611.8
20.1761 27619.4
20.1914 27616.5
20.2067 27575.8
20.222 27574.6
20.2373 27634.8
20.2526 27646.4
20.268 27657.4
20.2833 27668.9
20.2986 27632.2
20.3139 27583.9
20.3292 27533.1
20.3445 27505.8
20.3599 27515.7
20.3752 27512.3
20.3905 27555.8
20.4058 27585.9
20.4211 27590
20.4364 27613.9
20.4518 27620.4
20.4671 27605
20.4824 27613.7
20.4977 27572.7
20.513 27555
20.5283 27576.5
20.5437 27572.4
20.559 27540.1
20.5743 27498.5
20.5896 27502
20.6049 27560.7
20.6202 27552.6
20.6356 27515.5
20.6509 27532.8
20.6662 27549.3
20.6815 27551.5
20.6968 27530.3
20.7121 27490.8
20.7275 27469
20.7428 27471
20.7581 27452.9
20.7734 27399.1
20.7887 27400.1
20.804 27411
20.8194 27416.3
20.8347 27422.2
20.85 27414.9
20.8653 27379.8
20.8806 27375.3
20.8959 27369.2
20.9113 27362.6
20.9266 27419.5
20.9419 27428.9
20.9572 27358.6
20.9725 27337.2
20.9878 27320.4
21.0031 27334.2
21.0185 27375.3
21.0338 27394
21.0491 27405.4
21.0644 27379.5
21.0797 27384.1
21.095 27368.2
21.1104 27388.6
21.1257 27399.9
21.141 27386.3
21.1563 27372.9
21.1716 27386.1
21.1869 27402
21.2023 27399.5
21.2176 27354.5
21.2329 27359.5
21.2482 27388.4
21.2635 27370.2
21.2788 27345.4
21.2942 27356.4
21.3095 27325.6
21.3248 27344.8
21.3401 27378
21.3554 27362.1
21.3707 27311.4
21.3861 27336.7
21.4014 27321.4
21.4167 27313.6
21.432 27336.4
21.4473 27337.5
21.4626 27282.3
21.478 27254.6
21.4933 27278.3
21.5086 27297.4
21.5239 27315.3
21.5392 27327.1
21.5545 27297.4
21.5699 27271.9
21.5852 27292.2
21.6005 27293
21.6158 27258.7
21.6311 27240.4
21.6464 27279.4
21.6618 27265.6
21.6771 27318.3
21.6924 27366
21.7077 27354.6
21.723 27351.6
21.7383 27314.9
21.7537 27293.8
21.769 27351
21.7843 27328.1
21.7996 27264.1
21.8149 27297.8
21.8302 27309.9
21.8455 27323
21.8609 27344.5
21.8762 27331.6
21.8915 27342.1
21.9068 27324.9
21.9221 27325.2
21.9374 27364.4
21.9528 27428
21.9681 27434.4
21.9834 27427
21.9987 27396.1
22.014 27318.3
22.0293 27335.9
22.0447 27418.6
22.06 27409
22.0753 27383.4
22.0906 27373.7
22.1059 27353
22.1212 27381.7
22.1366 27393.8
22.1519 27440.6
22.1672 27436.6
22.1825 27447.5
22.1978 27517
22.2131 27496.3
22.2285 27473.9
22.2438 27484.9
22.2591 27505.2
22.2744 27473.1
22.2897 27446
22.305 27485.2
22.3204 27507.8
22.3357 27498.7
22.351 27526.6
22.3663 27572.4
22.3816 27608.5
22.3969 27613.5
22.4123 27568.8
22.4276 27560.9
22.4429 27541.4
22.4582 27534.9
22.4735 27548.3
22.4888 27567.3
22.5042 27576.4
22.5195 27579.5
22.5348 27587.5
22.5501 27599.3
22.5654 27581.2
22.5807 27576
22.596 27607.1
22.6114 27684
22.6267 27669.9
22.642 27657.7
22.6573 27615.4
22.6726 27621.6
22.6879 27672.1
22.7033 27698.1
22.7186 27708.8
22.7339 27661.5
22.7492 27628.9
22.7645 27648.9
22.7798 27664.7
22.7952 27650.8
22.8105 27597.8
22.8258 27624.6
22.8411 27625.4
22.8564 27678.4
22.8717 27690.1
22.8871 27692
22.9024 27726
22.9177 27693.3
22.933 27686.3
22.9483 27716.6
22.9636 27771.9
22.979 27757.9
22.9943 27800.9
