# xPDFsuite Configuration #
[PDF]
wavelength = 0.1
dataformat = QA
inputfile = B3_Bronze-3nm_ss_33.chi
backgroundfile = B3_Li-bkg_ss.chi
mode = xray
bgscale = 0.98705
composition = Ti O2
outputtype = iq
qmaxinst = 23.0
qmin = 0.1
qmax = 23.0
rmax = 30.0
rmin = 0.0
rstep = 0.01
rpoly = 0.9

[Misc]
inputdir = E:/Beamtime/PETRA-III_September-2019/BeamData/processed/Run1/B3/chi/chi_w_sigmas/chi_scaled
savedir = E:/Beamtime/PETRA-III_September-2019/BeamData/processed/Run1/B3
backgroundfilefull = E:/Beamtime/PETRA-III_September-2019/BeamData/processed/Run1/B3/chi/chi_w_sigmas/chi_scaled/B3_Li-bkg_ss.chi

#### start data
#S 1
#L Q($\AA^{-1}$)  intensity(a.u.)
0.111649 0
0.126965 0
0.142282 0
0.157598 0
0.172914 0
0.188231 0
0.203547 0
0.218864 0
0.23418 0
0.249496 0
0.264813 0
0.280129 0
0.295445 0
0.310762 0
0.326078 0
0.341394 0
0.356711 0
0.372027 0
0.387343 0
0.40266 0
0.417976 0
0.433292 0
0.448609 0
0.463925 0
0.479241 0
0.494558 0
0.509874 0
0.525191 0
0.540507 0
0.555823 0
0.57114 0
0.586456 0
0.601772 0
0.617089 0
0.632405 0
0.647721 0
0.663038 0
0.678354 0
0.69367 0
0.708987 0
0.724303 0
0.739619 0
0.754936 0
0.770252 0
0.785568 0
0.800885 0
0.816201 0
0.831518 0
0.846834 0
0.86215 1.36503
0.877467 98004.3
0.892783 97865.7
0.908099 97683.4
0.923416 98052.8
0.938732 98536.3
0.954048 99002.4
0.969365 99122.3
0.984681 98640.6
0.999997 97094.8
1.01531 94826.9
1.03063 90831.4
1.04595 85933.5
1.06126 79938
1.07658 72758
1.0919 65691.2
1.10721 57547.3
1.12253 50056.3
1.13784 42356.1
1.15316 35267
1.16848 29065.3
1.18379 23137
1.19911 18389.4
1.21443 14036
1.22974 10522.9
1.24506 7731.34
1.26038 5566.55
1.27569 4166.73
1.29101 3281.57
1.30632 3043.36
1.32164 3370.42
1.33696 4179.41
1.35227 5407.27
1.36759 7071.75
1.38291 8888.59
1.39822 10993.5
1.41354 12972.6
1.42886 14788.2
1.44417 16468.7
1.45949 18000.7
1.4748 19464.2
1.49012 20954.5
1.50544 22799.3
1.52075 25213.3
1.53607 28524.3
1.55139 33203.1
1.5667 38915
1.58202 46763
1.59733 55736
1.61265 66292.8
1.62797 78070
1.64328 90030.9
1.6586 102789
1.67392 114475
1.68923 125570
1.70455 134895
1.71987 142326
1.73518 148206
1.7505 152247
1.76581 155326
1.78113 156890
1.79645 157484
1.81176 156989
1.82708 155462
1.8424 152845
1.85771 149614
1.87303 145639
1.88835 141291
1.90366 136843
1.91898 132497
1.93429 128634
1.94961 125547
1.96493 123341
1.98024 122021
1.99556 121017
2.01088 120253
2.02619 119012
2.04151 117152
2.05683 114290
2.07214 110664
2.08746 106433
2.10277 101509
2.11809 96570.6
2.13341 91342.4
2.14872 86513.7
2.16404 82054.5
2.17936 78068.9
2.19467 74872.9
2.20999 72123.6
2.22531 70109.1
2.24062 68500.1
2.25594 67217.9
2.27125 66127.1
2.28657 65067.2
2.30189 64112.1
2.3172 63019.2
2.33252 61870.3
2.34784 60523.9
2.36315 59190.9
2.37847 57936.7
2.39379 56630.1
2.4091 55823.3
2.42442 55122
2.43973 54943.6
2.45505 54950.8
2.47037 55090.2
2.48568 55405.9
2.501 55707.4
2.51632 56056.6
2.53163 56209.7
2.54695 56206.2
2.56226 56147.8
2.57758 56081.7
2.5929 56040.2
2.60821 56025.9
2.62353 55961.7
2.63885 55978.4
2.65416 56068.2
2.66948 56261.8
2.6848 56656.1
2.70011 57138.7
2.71543 57982.2
2.73074 58925.5
2.74606 60185
2.76138 61679.9
2.77669 63485.6
2.79201 65656.4
2.80733 68141.5
2.82264 71306.8
2.83796 75173.4
2.85328 79871.8
2.86859 85687.5
2.88391 92357.8
2.89922 100386
2.91454 109179
2.92986 118664
2.94517 128531
2.96049 138129
2.97581 147466
2.99112 155366
3.00644 161935
3.02176 166346
3.03707 168597
3.05239 168712
3.0677 166837
3.08302 163186
3.09834 158179
3.11365 152328
3.12897 146065
3.14429 139906
3.1596 134082
3.17492 129107
3.19024 124600
3.20555 120954
3.22087 117771
3.23618 114761
3.2515 111841
3.26682 108729
3.28213 105506
3.29745 101909
3.31277 98245.2
3.32808 94421.9
3.3434 90500
3.35872 86923.5
3.37403 83412.2
3.38935 80513
3.40466 77965.2
3.41998 75941.2
3.4353 74322.7
3.45061 73055.4
3.46593 72241.5
3.48125 71641.5
3.49656 71371.4
3.51188 71265.4
3.52719 71465.5
3.54251 71836.3
3.55783 72355.6
3.57314 72887.9
3.58846 73370.8
3.60378 73803.3
3.61909 74216.4
3.63441 74507.5
3.64973 74756.2
3.66504 74795.6
3.68036 74825.4
3.69567 74799.6
3.71099 74917.5
3.72631 75298.4
3.74162 75933.2
3.75694 76924.6
3.77226 78210.3
3.78757 79746.7
3.80289 81512.8
3.81821 83337
3.83352 85148.4
3.84884 86893.9
3.86415 88365.9
3.87947 89460.9
3.89479 90091.9
3.9101 90233.1
3.92542 89938
3.94074 89276.3
3.95605 88271
3.97137 87133.5
3.98669 85806.7
4.002 84600.7
4.01732 83533.1
4.03263 82699.8
4.04795 82181.1
4.06327 82036.3
4.07858 82270.5
4.0939 82848
4.10922 83673.1
4.12453 84656.1
4.13985 85710.7
4.15517 86667.8
4.17048 87453.8
4.1858 87935.3
4.20111 88161.3
4.21643 88195.2
4.23175 87959.3
4.24706 87476
4.26238 86814.7
4.2777 86177.4
4.29301 85559.1
4.30833 85061.2
4.32365 84725.4
4.33896 84618
4.35428 84760
4.36959 84980.7
4.38491 85362.9
4.40023 85654.6
4.41554 85760.1
4.43086 85584.1
4.44618 85064.3
4.46149 84099.3
4.47681 82706.8
4.49213 80890.7
4.50744 78749
4.52276 76335.4
4.53807 73721.4
4.55339 71136.9
4.56871 68588.9
4.58402 66191.6
4.59934 63919.8
4.61466 61909.4
4.62997 60187
4.64529 58700.1
4.6606 57515.6
4.67592 56544.1
4.69124 55860.3
4.70655 55390
4.72187 55150.2
4.73719 55152.6
4.7525 55373.9
4.76782 55805.6
4.78314 56459.5
4.79845 57266.1
4.81377 58235.9
4.82908 59332.1
4.8444 60557.8
4.85972 61889
4.87503 63278.8
4.89035 64672.9
4.90567 66074.1
4.92098 67512.1
4.9363 69027.2
4.95162 70608.4
4.96693 72311.3
4.98225 74251.1
4.99756 76618.5
5.01288 79148.5
5.0282 81741.3
5.04351 84427.6
5.05883 86604.1
5.07415 88319.1
5.08946 89393
5.10478 89644.5
5.1201 89306.3
5.13541 88241.2
5.15073 86815.8
5.16604 85045.6
5.18136 83186.6
5.19668 81459.1
5.21199 79965
5.22731 78747.2
5.24263 77804.4
5.25794 76987.3
5.27326 76341.2
5.28858 75832.6
5.30389 75561
5.31921 75586.9
5.33452 75876.1
5.34984 76381.5
5.36516 76907.7
5.38047 77243.6
5.39579 77188.2
5.41111 76588.7
5.42642 75345.1
5.44174 73518.2
5.45706 71085.5
5.47237 68261.7
5.48769 65151.7
5.503 62018.5
5.51832 59160.1
5.53364 56579.1
5.54895 54539.2
5.56427 52971.6
5.57959 51770.8
5.5949 50926
5.61022 50217.7
5.62553 49690.5
5.64085 49166.8
5.65617 48748.7
5.67148 48401.9
5.6868 48133.3
5.70212 47886.7
5.71743 47706.3
5.73275 47657.7
5.74807 47691.2
5.76338 47852.6
5.7787 48110.8
5.79401 48493.4
5.80933 49040.4
5.82465 49675.7
5.83996 50374.9
5.85528 51069.2
5.8706 51834.4
5.88591 52593.5
5.90123 53351.5
5.91655 54043.4
5.93186 54691.5
5.94718 55213.3
5.96249 55589.6
5.97781 55862.6
5.99313 56005.8
6.00844 56014.1
6.02376 55877.2
6.03908 55646.4
6.05439 55351
6.06971 55013.1
6.08503 54659
6.10034 54317.3
6.11566 54062.5
6.13097 53846.1
6.14629 53645.8
6.16161 53478.1
6.17692 53406.1
6.19224 53441.1
6.20756 53523.8
6.22287 53702.6
6.23819 53957
6.25351 54255.6
6.26882 54522.8
6.28414 54694.9
6.29945 54736.1
6.31477 54598.4
6.33009 54299
6.3454 53859.6
6.36072 53317.7
6.37604 52727.4
6.39135 52111.3
6.40667 51550.7
6.42199 51053.8
6.4373 50676.9
6.45262 50375
6.46793 50185.5
6.48325 50058.1
6.49857 49978.3
6.51388 49927.1
6.5292 49917.6
6.54452 49917.8
6.55983 49911
6.57515 49936.9
6.59046 50007.4
6.60578 50127
6.6211 50278.4
6.63641 50511.6
6.65173 50750.6
6.66705 51036.3
6.68236 51365.6
6.69768 51744.8
6.713 52165.3
6.72831 52595.2
6.74363 53009.3
6.75894 53440
6.77426 53864.9
6.78958 54258.6
6.80489 54648.7
6.82021 54995.8
6.83553 55282.8
6.85084 55466
6.86616 55553.5
6.88148 55545.9
6.89679 55455.8
6.91211 55262.4
6.92742 55015.3
6.94274 54711.6
6.95806 54359.6
6.97337 53974
6.98869 53620.8
7.00401 53276
7.01932 52959
7.03464 52647.1
7.04996 52341.3
7.06527 52061.7
7.08059 51841.7
7.0959 51643.5
7.11122 51481.1
7.12654 51297.6
7.14185 51124.7
7.15717 50968.2
7.17249 50814.7
7.1878 50649.8
7.20312 50493.8
7.21844 50339.8
7.23375 50186.3
7.24907 50037
7.26438 49866.8
7.2797 49688.7
7.29502 49508.3
7.31033 49326.5
7.32565 49134.6
7.34097 48954.4
7.35628 48802.3
7.3716 48665.8
7.38692 48553.2
7.40223 48452.7
7.41755 48414
7.43286 48450.2
7.44818 48496
7.4635 48576.7
7.47881 48643.4
7.49413 48768.3
7.50945 48884.4
7.52476 48984.3
7.54008 48998.9
7.55539 48950.5
7.57071 48810.9
7.58603 48598.5
7.60134 48327.8
7.61666 48023.6
7.63198 47701.8
7.64729 47361.5
7.66261 47042.5
7.67793 46824.1
7.69324 46709.9
7.70856 46705.6
7.72387 46809.8
7.73919 47025.3
7.75451 47321.6
7.76982 47678
7.78514 48014.9
7.80046 48298.7
7.81577 48491.7
7.83109 48561.1
7.84641 48495.5
7.86172 48266.6
7.87704 47899.6
7.89235 47415.9
7.90767 46904
7.92299 46397.4
7.9383 45930.8
7.95362 45496.9
7.96894 45113.5
7.98425 44767.2
7.99957 44461.7
8.01489 44197.8
8.0302 43923.2
8.04552 43667
8.06083 43465.4
8.07615 43309.7
8.09147 43212.4
8.10678 43146.2
8.1221 43118.4
8.13742 43149.4
8.15273 43218.4
8.16805 43370.3
8.18337 43524.5
8.19868 43716.5
8.214 43898.4
8.22931 44112.2
8.24463 44295
8.25995 44431.6
8.27526 44491.8
8.29058 44481.6
8.3059 44447.2
8.32121 44360.5
8.33653 44251.9
8.35185 44113
8.36716 43922.2
8.38248 43743.9
8.39779 43598.3
8.41311 43477.4
8.42843 43375
8.44374 43295.8
8.45906 43206.3
8.47438 43126.5
8.48969 43060.5
8.50501 43018.7
8.52032 42955.3
8.53564 42887.7
8.55096 42809.1
8.56627 42759.4
8.58159 42738.1
8.59691 42718.9
8.61222 42729.3
8.62754 42736.6
8.64286 42806.6
8.65817 42901.1
8.67349 43021.7
8.6888 43178.7
8.70412 43402.9
8.71944 43708.9
8.73475 44132.6
8.75007 44650
8.76539 45268.4
8.7807 45949.7
8.79602 46595.9
8.81134 47172.8
8.82665 47617.7
8.84197 47942
8.85728 48104.4
8.8726 48156.8
8.88792 48100.8
8.90323 48025.2
8.91855 48005.8
8.93387 48072.6
8.94918 48246.2
8.9645 48426
8.97982 48599.7
8.99513 48656
9.01045 48612.3
9.02576 48402.5
9.04108 48003.8
9.0564 47427.6
9.07171 46741
9.08703 46022.6
9.10235 45253.8
9.11766 44534
9.13298 43889.7
9.1483 43330.3
9.16361 42839.9
9.17893 42454.7
9.19424 42119.6
9.20956 41838.8
9.22488 41549.1
9.24019 41302.8
9.25551 41062.9
9.27083 40834.5
9.28614 40607.2
9.30146 40421.4
9.31678 40285.1
9.33209 40141.8
9.34741 40028.3
9.36272 39945.4
9.37804 39876.8
9.39336 39826.3
9.40867 39799.3
9.42399 39784.9
9.43931 39796.6
9.45462 39842.1
9.46994 39913.1
9.48525 39990.9
9.50057 40123.6
9.51589 40277.3
9.5312 40407.7
9.54652 40513.4
9.56184 40560.5
9.57715 40537.8
9.59247 40432
9.60779 40246.9
9.6231 40014.1
9.63842 39762.2
9.65373 39508.1
9.66905 39263.9
9.68437 39085.8
9.69968 38978.5
9.715 38912.7
9.73032 38887.8
9.74563 38874.1
9.76095 38909.7
9.77627 38979.2
9.79158 39057.8
9.8069 39153.6
9.82221 39250.3
9.83753 39311.6
9.85285 39344.8
9.86816 39370.5
9.88348 39405.9
9.8988 39465.3
9.91411 39534.6
9.92943 39638.2
9.94475 39751.9
9.96006 39923.4
9.97538 40098.4
9.99069 40270.8
10.006 40464.7
10.0213 40683.5
10.0366 40885.2
10.052 41078.2
10.0673 41246.6
10.0826 41446.6
10.0979 41680.6
10.1132 41919.7
10.1285 42224.3
10.1439 42538.9
10.1592 42849.5
10.1745 43077.6
10.1898 43235.6
10.2051 43309.7
10.2204 43335.5
10.2358 43307.6
10.2511 43314.3
10.2664 43335.3
10.2817 43433.5
10.297 43565
10.3123 43782.3
10.3277 43990.5
10.343 44159.8
10.3583 44212.5
10.3736 44183.5
10.3889 44047.1
10.4042 43829.7
10.4196 43519.7
10.4349 43214.5
10.4502 42889.9
10.4655 42654.8
10.4808 42447.9
10.4961 42290.8
10.5115 42191.3
10.5268 42150.6
10.5421 42163.7
10.5574 42185.1
10.5727 42240.1
10.588 42298.9
10.6033 42359.7
10.6187 42385.5
10.634 42353.2
10.6493 42265.5
10.6646 42139.5
10.6799 41967.5
10.6952 41778.8
10.7106 41592.8
10.7259 41460.8
10.7412 41362.3
10.7565 41303.6
10.7718 41286.4
10.7871 41284.4
10.8025 41277.5
10.8178 41312.7
10.8331 41312.6
10.8484 41262.9
10.8637 41122.1
10.879 40951.4
10.8944 40746.7
10.9097 40493.9
10.925 40245.8
10.9403 39977.7
10.9556 39720.3
10.9709 39470.7
10.9863 39267.8
11.0016 39079.7
11.0169 38896.4
11.0322 38696.8
11.0475 38478.9
11.0628 38256.9
11.0782 38040.3
11.0935 37841.1
11.1088 37647.4
11.1241 37474.8
11.1394 37315
11.1547 37173.6
11.1701 37040.8
11.1854 36917.3
11.2007 36795.8
11.216 36669.3
11.2313 36566.6
11.2466 36451.4
11.262 36362.9
11.2773 36294.4
11.2926 36276.3
11.3079 36245.6
11.3232 36192.7
11.3385 36122.7
11.3538 36083
11.3692 36050.4
11.3845 36021.1
11.3998 36008.8
11.4151 35988
11.4304 35967.4
11.4457 35942.1
11.4611 35929.1
11.4764 35926.2
11.4917 35962.3
11.507 35983.5
11.5223 36034.7
11.5376 36051.7
11.553 36100.6
11.5683 36133.8
11.5836 36162.2
11.5989 36148
11.6142 36121.6
11.6295 36094
11.6449 36036.4
11.6602 35967.1
11.6755 35915.9
11.6908 35870.7
11.7061 35851.4
11.7214 35819.6
11.7368 35835.7
11.7521 35856.8
11.7674 35906.2
11.7827 35943.5
11.798 35998.6
11.8133 36002.2
11.8287 35984.3
11.844 35960.9
11.8593 35914.3
11.8746 35863.4
11.8899 35842.4
11.9052 35825.2
11.9206 35804.2
11.9359 35782.4
11.9512 35760.4
11.9665 35760.1
11.9818 35779.9
11.9971 35788.8
12.0125 35793
12.0278 35772.2
12.0431 35752.4
12.0584 35725.6
12.0737 35697.4
12.089 35664.1
12.1044 35634.3
12.1197 35592.2
12.135 35568.9
12.1503 35550.7
12.1656 35522.6
12.1809 35488.2
12.1962 35480
12.2116 35466.7
12.2269 35443.2
12.2422 35412.1
12.2575 35395.7
12.2728 35359
12.2881 35333
12.3035 35334.4
12.3188 35337.7
12.3341 35310.8
12.3494 35274.6
12.3647 35229.5
12.38 35196.5
12.3954 35153.5
12.4107 35141.5
12.426 35139.5
12.4413 35136.3
12.4566 35127.5
12.4719 35079.2
12.4873 35034.8
12.5026 35007.6
12.5179 35002
12.5332 34983.3
12.5485 34970.8
12.5638 34943.5
12.5792 34916.8
12.5945 34941.3
12.6098 34968
12.6251 34979.9
12.6404 34984.7
12.6557 34988.7
12.6711 35029.9
12.6864 35033.4
12.7017 35009.9
12.717 35009.3
12.7323 35041.1
12.7476 35060.4
12.763 35113.8
12.7783 35180.3
12.7936 35250.6
12.8089 35330.9
12.8242 35384.3
12.8395 35426.1
12.8549 35462.7
12.8702 35452.1
12.8855 35393.3
12.9008 35324.4
12.9161 35248.7
12.9314 35173.4
12.9467 35067
12.9621 34987.7
12.9774 34934.2
12.9927 34912.8
13.008 34900.8
13.0233 34863.4
13.0386 34840.6
13.054 34849.9
13.0693 34837.2
13.0846 34813.6
13.0999 34813
13.1152 34823.5
13.1305 34804.1
13.1459 34779.6
13.1612 34767
13.1765 34756.2
13.1918 34757.9
13.2071 34766.3
13.2224 34781.7
13.2378 34790.3
13.2531 34777.5
13.2684 34808.1
13.2837 34833.3
13.299 34850.4
13.3143 34872.6
13.3297 34902.8
13.345 34952.7
13.3603 35037.8
13.3756 35168.2
13.3909 35313.2
13.4062 35454.2
13.4216 35627
13.4369 35829.4
13.4522 36023.1
13.4675 36206.8
13.4828 36366.8
13.4981 36489.8
13.5135 36557.5
13.5288 36581
13.5441 36628.5
13.5594 36712.6
13.5747 36767.9
13.59 36775.3
13.6054 36739.3
13.6207 36670.4
13.636 36552.3
13.6513 36403.5
13.6666 36205
13.6819 35997.6
13.6973 35798
13.7126 35606.5
13.7279 35468.6
13.7432 35350.5
13.7585 35248.9
13.7738 35157.7
13.7891 35078.6
13.8045 34991.1
13.8198 34923.9
13.8351 34867.4
13.8504 34817.8
13.8657 34809.3
13.881 34791.4
13.8964 34804.6
13.9117 34848.3
13.927 34870.2
13.9423 34880.2
13.9576 34895.1
13.9729 34873.4
13.9883 34824.9
14.0036 34772.3
14.0189 34691.4
14.0342 34557.3
14.0495 34443.6
14.0648 34325.4
14.0802 34190.8
14.0955 34038.7
14.1108 33901.6
14.1261 33764.5
14.1414 33673.4
14.1567 33588
14.1721 33493.3
14.1874 33432
14.2027 33380
14.218 33347.1
14.2333 33344.6
14.2486 33332.2
14.264 33313.3
14.2793 33280.5
14.2946 33238.1
14.3099 33193.6
14.3252 33158
14.3405 33133.8
14.3559 33104.1
14.3712 33118
14.3865 33120.4
14.4018 33087.6
14.4171 33063
14.4324 33026
14.4478 32989.1
14.4631 32941.1
14.4784 32908.6
14.4937 32909.4
14.509 32929.7
14.5243 32959.9
14.5397 32982.9
14.555 32978.3
14.5703 32974.1
14.5856 32986.3
14.6009 32984.5
14.6162 32957.2
14.6315 32907.4
14.6469 32860.9
14.6622 32851
14.6775 32845.3
14.6928 32806.4
14.7081 32730.5
14.7234 32680.6
14.7388 32627.5
14.7541 32571.6
14.7694 32516.3
14.7847 32464.1
14.8 32420.3
14.8153 32375
14.8307 32322.3
14.846 32289.3
14.8613 32269.5
14.8766 32235.2
14.8919 32182.4
14.9072 32133.7
14.9226 32099.3
14.9379 32062
14.9532 32020.9
14.9685 32016.7
14.9838 32027.1
14.9991 32032.2
15.0145 32019.3
15.0298 32013.8
15.0451 31992.1
15.0604 31990.4
15.0757 32006.6
15.091 31983
15.1064 31974.5
15.1217 31985.8
15.137 31999.2
15.1523 32022.7
15.1676 32046.8
15.1829 32063.7
15.1983 32079.8
15.2136 32077.9
15.2289 32091
15.2442 32122.1
15.2595 32170.4
15.2748 32209.6
15.2902 32243.5
15.3055 32278.9
15.3208 32328.3
15.3361 32379.8
15.3514 32421.1
15.3667 32449.4
15.382 32440.8
15.3974 32441.8
15.4127 32454.8
15.428 32420.6
15.4433 32378.2
15.4586 32345.3
15.4739 32296.1
15.4893 32248.8
15.5046 32215.8
15.5199 32188.5
15.5352 32147.9
15.5505 32100.1
15.5658 32070.3
15.5812 32055.8
15.5965 32066.5
15.6118 32076
15.6271 32036.4
15.6424 31983.3
15.6577 31974.3
15.6731 31971.3
15.6884 31957.2
15.7037 31955.8
15.719 31951.3
15.7343 31933.2
15.7496 31904.2
15.765 31860.2
15.7803 31865.4
15.7956 31845.2
15.8109 31811
15.8262 31783.6
15.8415 31735.2
15.8569 31673.1
15.8722 31605
15.8875 31532.3
15.9028 31471.9
15.9181 31439.3
15.9334 31379.8
15.9488 31330.6
15.9641 31312.3
15.9794 31304.4
15.9947 31280.6
16.01 31207.5
16.0253 31195
16.0407 31187.2
16.056 31151.3
16.0713 31114.3
16.0866 31082
16.1019 31084.1
16.1172 31088.5
16.1326 31073
16.1479 31064.2
16.1632 31082.3
16.1785 31067.3
16.1938 31066.2
16.2091 31074.6
16.2244 31065.2
16.2398 31023.3
16.2551 31029.9
16.2704 31061.4
16.2857 31062.2
16.301 31039.5
16.3163 31038
16.3317 31031.7
16.347 31020.8
16.3623 31028.7
16.3776 31022.8
16.3929 30974.9
16.4082 30949.6
16.4236 30956.6
16.4389 30919.9
16.4542 30893.3
16.4695 30853.8
16.4848 30803.7
16.5001 30788.4
16.5155 30789.5
16.5308 30765.4
16.5461 30737.8
16.5614 30699.5
16.5767 30650.1
16.592 30618.8
16.6074 30580.9
16.6227 30571.2
16.638 30556.6
16.6533 30539.3
16.6686 30500.4
16.6839 30445.5
16.6993 30404.9
16.7146 30345
16.7299 30310.5
16.7452 30301.9
16.7605 30304.7
16.7758 30296.2
16.7912 30270.1
16.8065 30253.8
16.8218 30232.7
16.8371 30208.3
16.8524 30208.3
16.8677 30228.5
16.8831 30249.3
16.8984 30245.5
16.9137 30192.5
16.929 30155.7
16.9443 30172.1
16.9596 30176.6
16.9749 30137.3
16.9903 30082.5
17.0056 30044.8
17.0209 30009.2
17.0362 29983.6
17.0515 29981.9
17.0668 29949.3
17.0822 29936.8
17.0975 29930.7
17.1128 29892.7
17.1281 29855.2
17.1434 29842.6
17.1587 29832.3
17.1741 29824.3
17.1894 29799.4
17.2047 29792.3
17.22 29766.8
17.2353 29743.2
17.2506 29754.2
17.266 29725
17.2813 29699
17.2966 29681
17.3119 29655.7
17.3272 29618.2
17.3425 29600.9
17.3579 29603.9
17.3732 29597.9
17.3885 29589.9
17.4038 29586.1
17.4191 29573.8
17.4344 29558.6
17.4498 29579.1
17.4651 29634
17.4804 29643.4
17.4957 29603.4
17.511 29557.1
17.5263 29551.1
17.5417 29563.8
17.557 29577.9
17.5723 29591.9
17.5876 29606.3
17.6029 29623.3
17.6182 29630.2
17.6336 29622
17.6489 29602.1
17.6642 29605.5
17.6795 29613.7
17.6948 29645
17.7101 29633.6
17.7255 29607.6
17.7408 29613.2
17.7561 29615.2
17.7714 29588.6
17.7867 29577.1
17.802 29561.1
17.8173 29505.8
17.8327 29460.2
17.848 29448.4
17.8633 29447.9
17.8786 29446.5
17.8939 29426.8
17.9092 29437.7
17.9246 29458.5
17.9399 29455.1
17.9552 29427.2
17.9705 29424.2
17.9858 29387
18.0011 29320.6
18.0165 29322.4
18.0318 29308.7
18.0471 29274.1
18.0624 29261.3
18.0777 29254.9
18.093 29292.2
18.1084 29315.7
18.1237 29318.3
18.139 29298.8
18.1543 29278.9
18.1696 29284.3
18.1849 29263.8
18.2003 29237.1
18.2156 29242.3
18.2309 29252.5
18.2462 29219.4
18.2615 29209.3
18.2768 29216
18.2922 29186.5
18.3075 29188
18.3228 29235.8
18.3381 29281.7
18.3534 29328.7
18.3687 29361.2
18.3841 29373.1
18.3994 29385.5
18.4147 29401.2
18.43 29425
18.4453 29404.9
18.4606 29347.7
18.476 29333
18.4913 29319.4
18.5066 29263.9
18.5219 29235.9
18.5372 29194.6
18.5525 29161.4
18.5679 29145.1
18.5832 29135.6
18.5985 29135.6
18.6138 29117.9
18.6291 29082.3
18.6444 29039.7
18.6597 29011.3
18.6751 28989.7
18.6904 28981.9
18.7057 28978.7
18.721 28988.9
18.7363 28968.2
18.7516 28943.4
18.767 28944.1
18.7823 28917.9
18.7976 28847.5
18.8129 28812.9
18.8282 28803
18.8435 28755.9
18.8589 28728.8
18.8742 28727
18.8895 28686.2
18.9048 28654.9
18.9201 28621.7
18.9354 28606.2
18.9508 28602.5
18.9661 28593.4
18.9814 28594.5
18.9967 28571.5
19.012 28487.6
19.0273 28451.8
19.0427 28482.3
19.058 28481.7
19.0733 28442.5
19.0886 28401.8
19.1039 28397.4
19.1192 28373.3
19.1346 28362.5
19.1499 28350.2
19.1652 28328.2
19.1805 28318.2
19.1958 28340.8
19.2111 28332.1
19.2265 28332.6
19.2418 28349.3
19.2571 28346.4
19.2724 28318.2
19.2877 28296.8
19.303 28272.6
19.3184 28215.7
19.3337 28158.5
19.349 28163.6
19.3643 28144.8
19.3796 28109.3
19.3949 28096.3
19.4102 28091.7
19.4256 28102.4
19.4409 28080.9
19.4562 28052.9
19.4715 28052.7
19.4868 28039.9
19.5021 27997.9
19.5175 27991.6
19.5328 27989.9
19.5481 27949.6
19.5634 27940.7
19.5787 27923.2
19.594 27879.3
19.6094 27909.3
19.6247 27922.2
19.64 27902.6
19.6553 27936.2
19.6706 27915.9
19.6859 27824
19.7013 27795.6
19.7166 27794.3
19.7319 27807.4
19.7472 27803.8
19.7625 27759.9
19.7778 27744.8
19.7932 27766.7
19.8085 27753.1
19.8238 27740.3
19.8391 27737.9
19.8544 27701.5
19.8697 27678.5
19.8851 27694.3
19.9004 27674
19.9157 27620.8
19.931 27605.3
19.9463 27656.9
19.9616 27700
19.977 27674
19.9923 27642.5
20.0076 27635.6
20.0229 27604.4
20.0382 27587.4
20.0535 27542.7
20.0689 27489.5
20.0842 27502
20.0995 27524.2
20.1148 27514.7
20.1301 27546.6
20.1454 27539.7
20.1608 27533.7
20.1761 27535.2
20.1914 27528
20.2067 27485.4
20.222 27449.1
20.2373 27470.3
20.2526 27515.6
20.268 27522.1
20.2833 27488
20.2986 27497.1
20.3139 27482.8
20.3292 27476.6
20.3445 27467.5
20.3599 27473.1
20.3752 27447.5
20.3905 27429.4
20.4058 27456.4
20.4211 27466.2
20.4364 27472.8
20.4518 27475.2
20.4671 27488.6
20.4824 27502.1
20.4977 27495.6
20.513 27505.1
20.5283 27516.8
20.5437 27511.3
20.559 27498.4
20.5743 27436.1
20.5896 27441.2
20.6049 27465.1
20.6202 27453.3
20.6356 27436.4
20.6509 27442.3
20.6662 27441.2
20.6815 27456.2
20.6968 27421
20.7121 27367.5
20.7275 27364.5
20.7428 27393.4
20.7581 27376.9
20.7734 27367.9
20.7887 27357.4
20.804 27296
20.8194 27262.4
20.8347 27279.1
20.85 27315.5
20.8653 27309.5
20.8806 27288.8
20.8959 27284.9
20.9113 27293.7
20.9266 27295.2
20.9419 27288.6
20.9572 27274.9
20.9725 27266.5
20.9878 27233.1
21.0031 27222.8
21.0185 27287.3
21.0338 27259.8
21.0491 27236.1
21.0644 27266.8
21.0797 27262.5
21.095 27242.7
21.1104 27239.6
21.1257 27248.9
21.141 27262.2
21.1563 27236.6
21.1716 27237
21.1869 27234.6
21.2023 27275.7
21.2176 27250.6
21.2329 27197.6
21.2482 27182.3
21.2635 27169.9
21.2788 27193.1
21.2942 27236.1
21.3095 27190.8
21.3248 27197.7
21.3401 27188.4
21.3554 27198.4
21.3707 27157.5
21.3861 27168.6
21.4014 27141.5
21.4167 27155.6
21.432 27166.2
21.4473 27181.1
21.4626 27141.2
21.478 27125.1
21.4933 27162.5
21.5086 27175.4
21.5239 27215.2
21.5392 27235.1
21.5545 27210.9
21.5699 27199.5
21.5852 27185.7
21.6005 27187.1
21.6158 27174.8
21.6311 27145.9
21.6464 27163.6
21.6618 27175.7
21.6771 27189.9
21.6924 27170.7
21.7077 27144.2
21.723 27184.7
21.7383 27156.7
21.7537 27168
21.769 27171.2
21.7843 27161.8
21.7996 27167.7
21.8149 27174.6
21.8302 27141.1
21.8455 27138.5
21.8609 27164
21.8762 27150.4
21.8915 27162.8
21.9068 27178.8
21.9221 27168.3
21.9374 27208
21.9528 27209.2
21.9681 27187.5
21.9834 27211.9
21.9987 27236.2
22.014 27209.9
22.0293 27221.7
22.0447 27288.4
22.06 27275.9
22.0753 27277.7
22.0906 27289.3
22.1059 27303.8
22.1212 27321.9
22.1366 27289.5
22.1519 27279.3
22.1672 27264.6
22.1825 27312.1
22.1978 27371.2
22.2131 27352.4
22.2285 27366.3
22.2438 27345.5
22.2591 27315.8
22.2744 27278.4
22.2897 27282.2
22.305 27291.6
22.3204 27384.7
22.3357 27415.4
22.351 27392.2
22.3663 27385.5
22.3816 27417.3
22.3969 27472.8
22.4123 27449.2
22.4276 27435.1
22.4429 27396.9
22.4582 27416.5
22.4735 27486.6
22.4888 27500.2
22.5042 27486.9
22.5195 27443.6
22.5348 27428.7
22.5501 27503.5
22.5654 27485.1
22.5807 27433.1
22.596 27399.8
22.6114 27487.3
22.6267 27440
22.642 27400.4
22.6573 27429.3
22.6726 27464.5
22.6879 27512.7
22.7033 27529
22.7186 27527.8
22.7339 27494.2
22.7492 27484.7
22.7645 27483.8
22.7798 27491.8
22.7952 27493.4
22.8105 27491.2
22.8258 27480
22.8411 27457.1
22.8564 27484.5
22.8717 27559.1
22.8871 27566
22.9024 27586.6
22.9177 27589.7
22.933 27574.3
22.9483 27577.3
22.9636 27634.5
22.979 27634.7
22.9943 27700.7
