# xPDFsuite Configuration #
[PDF]
wavelength = 0.1
dataformat = QA
inputfile = B3_Bronze-3nm_ss_17.chi
backgroundfile = B3_Li-bkg_ss.chi
mode = xray
bgscale = 0.98705
composition = Ti O2
outputtype = iq
qmaxinst = 23.0
qmin = 0.1
qmax = 23.0
rmax = 30.0
rmin = 0.0
rstep = 0.01
rpoly = 0.9

[Misc]
inputdir = E:/Beamtime/PETRA-III_September-2019/BeamData/processed/Run1/B3/chi/chi_w_sigmas/chi_scaled
savedir = E:/Beamtime/PETRA-III_September-2019/BeamData/processed/Run1/B3
backgroundfilefull = E:/Beamtime/PETRA-III_September-2019/BeamData/processed/Run1/B3/chi/chi_w_sigmas/chi_scaled/B3_Li-bkg_ss.chi

#### start data
#S 1
#L Q($\AA^{-1}$)  intensity(a.u.)
0.111649 0
0.126965 0
0.142282 0
0.157598 0
0.172914 0
0.188231 0
0.203547 0
0.218864 0
0.23418 0
0.249496 0
0.264813 0
0.280129 0
0.295445 0
0.310762 0
0.326078 0
0.341394 0
0.356711 0
0.372027 0
0.387343 0
0.40266 0
0.417976 0
0.433292 0
0.448609 0
0.463925 0
0.479241 0
0.494558 0
0.509874 0
0.525191 0
0.540507 0
0.555823 0
0.57114 0
0.586456 0
0.601772 0
0.617089 0
0.632405 0
0.647721 0
0.663038 0
0.678354 0
0.69367 0
0.708987 0
0.724303 0
0.739619 0
0.754936 0
0.770252 0
0.785568 0
0.800885 0
0.816201 0
0.831518 0
0.846834 0
0.86215 1.45698
0.877467 104606
0.892783 105355
0.908099 106559
0.923416 108474
0.938732 111382
0.954048 113975
0.969365 115591
0.984681 115759
0.999997 114268
1.01531 111396
1.03063 106284
1.04595 99912.5
1.06126 92215
1.07658 83240.8
1.0919 74498.1
1.10721 64809.4
1.12253 56175.9
1.13784 47619
1.15316 39904.5
1.16848 33160.8
1.18379 27033
1.19911 22053.5
1.21443 17611.3
1.22974 13859.3
1.24506 10906.2
1.26038 8430.77
1.27569 6798.48
1.29101 5604.39
1.30632 5066.02
1.32164 5074.57
1.33696 5584.74
1.35227 6594.74
1.36759 7992.47
1.38291 9559.44
1.39822 11418.2
1.41354 13160.6
1.42886 14797.4
1.44417 16316.4
1.45949 17771.5
1.4748 19387.6
1.49012 21215.6
1.50544 23638.8
1.52075 26696.1
1.53607 30780.8
1.55139 36306.2
1.5667 42756.5
1.58202 51368.1
1.59733 60753
1.61265 71237.3
1.62797 82263.4
1.64328 92795.5
1.6586 103270
1.67392 112118
1.68923 119571
1.70455 125132
1.71987 128933
1.73518 131170
1.7505 132243
1.76581 132904
1.78113 132963
1.79645 132792
1.81176 132176
1.82708 131269
1.8424 129831
1.85771 128330
1.87303 126276
1.88835 124008
1.90366 121487
1.91898 118762
1.93429 116117
1.94961 113513
1.96493 111364
1.98024 109447
1.99556 107562
2.01088 105601
2.02619 102963
2.04151 99856.5
2.05683 95857.6
2.07214 91626.8
2.08746 87179.5
2.10277 82703.3
2.11809 78582.8
2.13341 74678.5
2.14872 71365.7
2.16404 68571.4
2.17936 66208
2.19467 64328.6
2.20999 62747.3
2.22531 61563.9
2.24062 60515
2.25594 59615.9
2.27125 58779.4
2.28657 57847.6
2.30189 56987.2
2.3172 56066.7
2.33252 55240.3
2.34784 54377.4
2.36315 53661
2.37847 53108.9
2.39379 52572.1
2.4091 52383.9
2.42442 52111.6
2.43973 52125
2.45505 52181.1
2.47037 52202.8
2.48568 52369.7
2.501 52520.5
2.51632 52784
2.53163 52956.3
2.54695 53185.9
2.56226 53483.7
2.57758 53766.6
2.5929 53965
2.60821 54175.4
2.62353 54313.3
2.63885 54492.6
2.65416 54645.5
2.66948 54821
2.6848 55186.1
2.70011 55732.8
2.71543 56765.5
2.73074 58010.8
2.74606 59781.2
2.76138 62082
2.77669 64954.7
2.79201 68662.5
2.80733 72972.6
2.82264 78554.6
2.83796 85176.2
2.85328 93021.5
2.86859 102400
2.88391 112452
2.89922 123836
2.91454 135142
2.92986 146261
2.94517 156544
2.96049 165331
2.97581 172424
2.99112 177231
3.00644 179798
3.02176 180149
3.03707 178502
3.05239 175159
3.0677 170726
3.08302 165438
3.09834 159895
3.11365 154386
3.12897 149043
3.14429 143969
3.1596 139061
3.17492 134484
3.19024 129785
3.20555 125335
3.22087 120816
3.23618 116183
3.2515 111519
3.26682 106637
3.28213 101845
3.29745 96960.5
3.31277 92347.9
3.32808 87938.2
3.3434 83791.4
3.35872 80261.3
3.37403 77074.2
3.38935 74578.3
3.40466 72540.1
3.41998 71006.2
3.4353 69909.1
3.45061 69163.1
3.46593 68803.7
3.48125 68566.9
3.49656 68515.6
3.51188 68463.3
3.52719 68471.1
3.54251 68492.5
3.55783 68391.4
3.57314 68182
3.58846 67761.5
3.60378 67267.3
3.61909 66766.4
3.63441 66298.9
3.64973 66051.9
3.66504 65961.6
3.68036 66131.3
3.69567 66661.5
3.71099 67595.2
3.72631 68936.6
3.74162 70577.4
3.75694 72409.1
3.77226 74282.3
3.78757 76020.8
3.80289 77470.8
3.81821 78564.1
3.83352 79159.6
3.84884 79302.1
3.86415 78950.9
3.87947 78123.5
3.89479 76936.9
3.9101 75519.7
3.92542 74012.8
3.94074 72622
3.95605 71366.4
3.97137 70455.2
3.98669 69729.4
4.002 69359.2
4.01732 69246
4.03263 69409.6
4.04795 69794
4.06327 70519.8
4.07858 71517.2
4.0939 72800.6
4.10922 74327.6
4.12453 76064.9
4.13985 78002.5
4.15517 79963.9
4.17048 81890.3
4.1858 83578.9
4.20111 85045.4
4.21643 86375.1
4.23175 87411.7
4.24706 88290.9
4.26238 88904.7
4.2777 89516.6
4.29301 89962.9
4.30833 90378.5
4.32365 90687.2
4.33896 90791.4
4.35428 90705
4.36959 90194.5
4.38491 89310.2
4.40023 87854
4.41554 85867.8
4.43086 83387.5
4.44618 80514.5
4.46149 77250.8
4.47681 73908.2
4.49213 70573.6
4.50744 67470.4
4.52276 64655.8
4.53807 62130.6
4.55339 60036.9
4.56871 58216.2
4.58402 56745.4
4.59934 55526.6
4.61466 54619.9
4.62997 53987.3
4.64529 53574.2
4.6606 53402.7
4.67592 53438.2
4.69124 53636.1
4.70655 54020.9
4.72187 54540.7
4.73719 55164.1
4.7525 55880.7
4.76782 56629.5
4.78314 57417.4
4.79845 58168
4.81377 58905.2
4.82908 59627.4
4.8444 60349.2
4.85972 61062.6
4.87503 61789.4
4.89035 62506
4.90567 63254.9
4.92098 64077.1
4.9363 64991.4
4.95162 66061.5
4.96693 67287
4.98225 68828.9
4.99756 70856.9
5.01288 73098.4
5.0282 75378
5.04351 77687
5.05883 79565.2
5.07415 81057.3
5.08946 81958.9
5.10478 82143.4
5.1201 81918.2
5.13541 81044
5.15073 80017
5.16604 78736.9
5.18136 77517.8
5.19668 76496.5
5.21199 75766.2
5.22731 75215.1
5.24263 74811.2
5.25794 74357.1
5.27326 73898
5.28858 73411.8
5.30389 72944.4
5.31921 72552
5.33452 72231.3
5.34984 71998.8
5.36516 71708.4
5.38047 71240
5.39579 70475.2
5.41111 69351.2
5.42642 67789.2
5.44174 65874.5
5.45706 63502.5
5.47237 60931.8
5.48769 58187.2
5.503 55539.2
5.51832 53242.2
5.53364 51333.4
5.54895 49935.5
5.56427 48958.5
5.57959 48346.2
5.5949 48054.9
5.61022 47883.1
5.62553 47825.1
5.64085 47703.4
5.65617 47594.5
5.67148 47467.6
5.6868 47377.2
5.70212 47250.8
5.71743 47114.5
5.73275 47048.5
5.74807 47013.4
5.76338 47078.6
5.7787 47226.4
5.79401 47519
5.80933 47965.5
5.82465 48517.4
5.83996 49202
5.85528 49929.3
5.8706 50724.9
5.88591 51519.2
5.90123 52287.6
5.91655 52959.8
5.93186 53558.6
5.94718 53976.8
5.96249 54224.6
5.97781 54273.9
5.99313 54124.3
6.00844 53787
6.02376 53257.7
6.03908 52615.1
6.05439 51904.1
6.06971 51205.8
6.08503 50539.2
6.10034 49912
6.11566 49386.3
6.13097 48923.4
6.14629 48566.2
6.16161 48285.7
6.17692 48112.9
6.19224 48059.7
6.20756 48118
6.22287 48303.4
6.23819 48581.5
6.25351 48937.3
6.26882 49326
6.28414 49667.5
6.29945 49926.9
6.31477 50037.1
6.33009 50020.6
6.3454 49857.1
6.36072 49605.7
6.37604 49296.9
6.39135 48981.4
6.40667 48699.6
6.42199 48515.5
6.4373 48434.7
6.45262 48442.7
6.46793 48558.6
6.48325 48761.1
6.49857 49055.3
6.51388 49405.8
6.5292 49788.2
6.54452 50223.5
6.55983 50684.1
6.57515 51197.3
6.59046 51729.6
6.60578 52299.6
6.6211 52876.7
6.63641 53452.1
6.65173 53968.2
6.66705 54417.8
6.68236 54777.2
6.69768 55069.4
6.713 55270.2
6.72831 55343.3
6.74363 55298
6.75894 55163.3
6.77426 54964.9
6.78958 54700.6
6.80489 54409.6
6.82021 54064.3
6.83553 53681.7
6.85084 53247.8
6.86616 52783.9
6.88148 52324.4
6.89679 51874
6.91211 51445.2
6.92742 51035.8
6.94274 50664.1
6.95806 50309.9
6.97337 49997.8
6.98869 49736.5
7.00401 49506.2
7.01932 49294.3
7.03464 49121.2
7.04996 48982.6
7.06527 48892.5
7.08059 48868.1
7.0959 48870.2
7.11122 48859.4
7.12654 48840.7
7.14185 48815.7
7.15717 48793.5
7.17249 48764.7
7.1878 48748.8
7.20312 48755.4
7.21844 48754.5
7.23375 48769.9
7.24907 48791.3
7.26438 48849.7
7.2797 48938.5
7.29502 49000.9
7.31033 49037.8
7.32565 49034.3
7.34097 48966.3
7.35628 48879.3
7.3716 48727.7
7.38692 48542.3
7.40223 48310.3
7.41755 48061.2
7.43286 47814
7.44818 47533.9
7.4635 47242.3
7.47881 46945.7
7.49413 46675.6
7.50945 46441
7.52476 46233.5
7.54008 46030.9
7.55539 45808.3
7.57071 45579.4
7.58603 45291.7
7.60134 45021.5
7.61666 44709.2
7.63198 44419.8
7.64729 44129.3
7.66261 43874.6
7.67793 43690.5
7.69324 43613.6
7.70856 43648.6
7.72387 43799.2
7.73919 44003.8
7.75451 44241.6
7.76982 44492.6
7.78514 44706.8
7.80046 44870.1
7.81577 44939.1
7.83109 44865.8
7.84641 44688.7
7.86172 44381.4
7.87704 44015.2
7.89235 43573.7
7.90767 43143.2
7.92299 42707
7.9383 42354.8
7.95362 42070.3
7.96894 41900.1
7.98425 41761.1
7.99957 41680.5
8.01489 41613.9
8.0302 41578.3
8.04552 41543.4
8.06083 41536.6
8.07615 41515.6
8.09147 41514
8.10678 41512.9
8.1221 41500.5
8.13742 41495.5
8.15273 41495
8.16805 41533.2
8.18337 41550.8
8.19868 41587.7
8.214 41617.3
8.22931 41667.3
8.24463 41697.5
8.25995 41697.3
8.27526 41611.8
8.29058 41480.2
8.3059 41332.7
8.32121 41182
8.33653 41018.6
8.35185 40841.3
8.36716 40647.1
8.38248 40466.4
8.39779 40353.6
8.41311 40272.9
8.42843 40219.5
8.44374 40194.5
8.45906 40216.9
8.47438 40277.5
8.48969 40347.9
8.50501 40453.8
8.52032 40580.9
8.53564 40730.6
8.55096 40893.9
8.56627 41054.6
8.58159 41244
8.59691 41409.7
8.61222 41618.3
8.62754 41800.4
8.64286 41993.2
8.65817 42171.8
8.67349 42354.3
8.6888 42513
8.70412 42685.5
8.71944 42913.7
8.73475 43205.4
8.75007 43541.9
8.76539 43960.7
8.7807 44399
8.79602 44793.3
8.81134 45088.4
8.82665 45270.2
8.84197 45343.7
8.85728 45285.6
8.8726 45145.5
8.88792 44946.5
8.90323 44789.1
8.91855 44722.5
8.93387 44782.7
8.94918 44950.6
8.9645 45170.7
8.97982 45382
8.99513 45513.1
9.01045 45541.7
9.02576 45393.1
9.04108 45085.3
9.0564 44616.5
9.07171 44042.7
9.08703 43414.1
9.10235 42756.2
9.11766 42147.5
9.13298 41628.5
9.1483 41201.2
9.16361 40868.9
9.17893 40610.5
9.19424 40392.3
9.20956 40222.8
9.22488 40065.7
9.24019 39938.3
9.25551 39818.6
9.27083 39697.8
9.28614 39530.2
9.30146 39356.6
9.31678 39169.8
9.33209 38992.4
9.34741 38838.8
9.36272 38731.7
9.37804 38593.4
9.39336 38484.8
9.40867 38372.9
9.42399 38304.1
9.43931 38285.3
9.45462 38322.1
9.46994 38399
9.48525 38494.7
9.50057 38646.1
9.51589 38831.6
9.5312 39031.8
9.54652 39199.1
9.56184 39336.3
9.57715 39364.6
9.59247 39315.2
9.60779 39207.1
9.6231 39042.3
9.63842 38866
9.65373 38686.9
9.66905 38504.3
9.68437 38350.2
9.69968 38259.9
9.715 38217.7
9.73032 38218.3
9.74563 38248.6
9.76095 38283.8
9.77627 38351.9
9.79158 38423.5
9.8069 38502.3
9.82221 38556.2
9.83753 38590.2
9.85285 38602.6
9.86816 38621
9.88348 38651
9.8988 38683.7
9.91411 38731.4
9.92943 38824
9.94475 38943.3
9.96006 39084.1
9.97538 39217.9
9.99069 39374.6
10.006 39507.6
10.0213 39685.8
10.0366 39860.8
10.052 40042.6
10.0673 40218
10.0826 40384.2
10.0979 40574.2
10.1132 40750.3
10.1285 40976.5
10.1439 41231.1
10.1592 41505.2
10.1745 41675.6
10.1898 41758.2
10.2051 41775.4
10.2204 41730
10.2358 41672.6
10.2511 41616.9
10.2664 41572.5
10.2817 41602.3
10.297 41701.2
10.3123 41891
10.3277 42063.4
10.343 42194.3
10.3583 42186.9
10.3736 42110.8
10.3889 41950.5
10.4042 41751.6
10.4196 41504.2
10.4349 41230
10.4502 40934.7
10.4655 40709.3
10.4808 40543.2
10.4961 40448.2
10.5115 40370.6
10.5268 40352.7
10.5421 40367.2
10.5574 40409.9
10.5727 40464.9
10.588 40515.5
10.6033 40546.9
10.6187 40549.3
10.634 40480.7
10.6493 40367.2
10.6646 40184
10.6799 39984.4
10.6952 39768.6
10.7106 39564
10.7259 39383.6
10.7412 39224
10.7565 39108
10.7718 39053.2
10.7871 39025.8
10.8025 39040.5
10.8178 39058.5
10.8331 39063
10.8484 38995.5
10.8637 38867.4
10.879 38692.5
10.8944 38460
10.9097 38201.8
10.925 37957.3
10.9403 37714.6
10.9556 37485.8
10.9709 37279.1
10.9863 37119.5
11.0016 36963.6
11.0169 36808.3
11.0322 36660.3
11.0475 36522.9
11.0628 36393.9
11.0782 36260.7
11.0935 36123.1
11.1088 35970.9
11.1241 35834.3
11.1394 35753.2
11.1547 35711
11.1701 35648.8
11.1854 35588.2
11.2007 35508.8
11.216 35431.6
11.2313 35361.9
11.2466 35298.2
11.262 35254.5
11.2773 35225.3
11.2926 35233.1
11.3079 35228.7
11.3232 35226
11.3385 35184.7
11.3538 35122
11.3692 35060
11.3845 35042.6
11.3998 35052.3
11.4151 35036.5
11.4304 35015.6
11.4457 34997.1
11.4611 34993
11.4764 35001.8
11.4917 35052.4
11.507 35092.7
11.5223 35154.8
11.5376 35199.5
11.553 35237.3
11.5683 35261
11.5836 35265.1
11.5989 35254
11.6142 35229.1
11.6295 35185.9
11.6449 35095.4
11.6602 34998.2
11.6755 34910
11.6908 34826
11.7061 34747.2
11.7214 34704.3
11.7368 34699.8
11.7521 34728
11.7674 34785.5
11.7827 34827.2
11.798 34858.2
11.8133 34848.4
11.8287 34810.8
11.844 34743.4
11.8593 34665.5
11.8746 34595.2
11.8899 34547.8
11.9052 34492.8
11.9206 34421.7
11.9359 34384.5
11.9512 34349.7
11.9665 34331.1
11.9818 34338.9
11.9971 34318.1
12.0125 34278.6
12.0278 34234.8
12.0431 34217
12.0584 34210.1
12.0737 34183.9
12.089 34138
12.1044 34086.2
12.1197 34033.4
12.135 33994.8
12.1503 33965.2
12.1656 33933.7
12.1809 33919.3
12.1962 33908.7
12.2116 33884.3
12.2269 33874.6
12.2422 33883.1
12.2575 33885.4
12.2728 33863.2
12.2881 33857.9
12.3035 33881.7
12.3188 33921.2
12.3341 33920.5
12.3494 33904.1
12.3647 33900.5
12.38 33920.6
12.3954 33925.8
12.4107 33938.7
12.426 33956.6
12.4413 33974.2
12.4566 33999
12.4719 34006.5
12.4873 33999.5
12.5026 33980.7
12.5179 33981.5
12.5332 33983.1
12.5485 33982.5
12.5638 33996.8
12.5792 33996.2
12.5945 33983.9
12.6098 33973.4
12.6251 34010.8
12.6404 34063.7
12.6557 34085
12.6711 34100.4
12.6864 34081.1
12.7017 34049.1
12.717 34047.5
12.7323 34048.6
12.7476 34034.4
12.763 34069.7
12.7783 34135.6
12.7936 34202.5
12.8089 34265.1
12.8242 34316.3
12.8395 34364.4
12.8549 34374.7
12.8702 34321.9
12.8855 34233.1
12.9008 34141.8
12.9161 34043.7
12.9314 33953.5
12.9467 33859.2
12.9621 33813
12.9774 33789.6
12.9927 33777
13.008 33778.5
13.0233 33772.1
13.0386 33791.4
13.054 33803.2
13.0693 33798.4
13.0846 33788.5
13.0999 33792.9
13.1152 33816.9
13.1305 33826.8
13.1459 33810.7
13.1612 33818.7
13.1765 33801.5
13.1918 33799.8
13.2071 33786.3
13.2224 33782.9
13.2378 33790
13.2531 33802.2
13.2684 33861.2
13.2837 33903
13.299 33917.8
13.3143 33917
13.3297 33927.9
13.345 33940.3
13.3603 33991.4
13.3756 34077.4
13.3909 34197.2
13.4062 34332.7
13.4216 34489.6
13.4369 34659.2
13.4522 34825.6
13.4675 34958
13.4828 35070.4
13.4981 35163.3
13.5135 35213.5
13.5288 35227.5
13.5441 35243.8
13.5594 35287.7
13.5747 35345.8
13.59 35364.8
13.6054 35318.7
13.6207 35229.6
13.636 35083.8
13.6513 34899.9
13.6666 34684.2
13.6819 34469
13.6973 34286.5
13.7126 34110
13.7279 33996.7
13.7432 33897.7
13.7585 33809.1
13.7738 33716.2
13.7891 33636.4
13.8045 33565.5
13.8198 33510.4
13.8351 33475.3
13.8504 33439.5
13.8657 33408.3
13.881 33394.6
13.8964 33400
13.9117 33434.8
13.927 33453.7
13.9423 33467.4
13.9576 33517.6
13.9729 33513.6
13.9883 33467.3
14.0036 33419.6
14.0189 33345.6
14.0342 33225.3
14.0495 33103.8
14.0648 32969.7
14.0802 32857.7
14.0955 32738.4
14.1108 32638.3
14.1261 32519.9
14.1414 32428
14.1567 32350.7
14.1721 32298.6
14.1874 32284.6
14.2027 32267.2
14.218 32240.4
14.2333 32214.5
14.2486 32164.6
14.264 32139.7
14.2793 32122.5
14.2946 32112.2
14.3099 32070
14.3252 32035.8
14.3405 32003.5
14.3559 31983.2
14.3712 31974.4
14.3865 31978.9
14.4018 31952.4
14.4171 31936.6
14.4324 31905.7
14.4478 31872.1
14.4631 31829.1
14.4784 31810.7
14.4937 31826.1
14.509 31829.9
14.5243 31838.7
14.5397 31824.1
14.555 31818.7
14.5703 31838.5
14.5856 31837.1
14.6009 31815.1
14.6162 31792.7
14.6315 31756.2
14.6469 31717.8
14.6622 31691.8
14.6775 31672.7
14.6928 31644.8
14.7081 31580.5
14.7234 31542.3
14.7388 31511.7
14.7541 31454
14.7694 31392
14.7847 31343.8
14.8 31311.4
14.8153 31275.9
14.8307 31253.3
14.846 31254.4
14.8613 31250.5
14.8766 31206.4
14.8919 31155.8
14.9072 31097.2
14.9226 31067.5
14.9379 31050
14.9532 31013
14.9685 30996.1
14.9838 30993.8
14.9991 31013.1
15.0145 31006.5
15.0298 30981.1
15.0451 30947.1
15.0604 30949.9
15.0757 30977.1
15.091 30993.1
15.1064 30997.2
15.1217 31014.5
15.137 31017
15.1523 31008.2
15.1676 31018.5
15.1829 31031.6
15.1983 31060.5
15.2136 31073.6
15.2289 31081.9
15.2442 31125.5
15.2595 31165.7
15.2748 31206.3
15.2902 31245.9
15.3055 31266.7
15.3208 31307.4
15.3361 31350
15.3514 31376.4
15.3667 31367.1
15.382 31354
15.3974 31338.7
15.4127 31324.3
15.428 31280.5
15.4433 31254.1
15.4586 31216.3
15.4739 31158.3
15.4893 31108.4
15.5046 31083.5
15.5199 31058.2
15.5352 31014.8
15.5505 30943.7
15.5658 30925.9
15.5812 30957.5
15.5965 30992.5
15.6118 30968.2
15.6271 30940.8
15.6424 30898
15.6577 30882.4
15.6731 30882.7
15.6884 30863.9
15.7037 30870.9
15.719 30868.2
15.7343 30854.2
15.7496 30799.4
15.765 30723.5
15.7803 30682.5
15.7956 30640.4
15.8109 30617.2
15.8262 30595.6
15.8415 30547.8
15.8569 30496.2
15.8722 30452.7
15.8875 30401.6
15.9028 30344.2
15.9181 30298.1
15.9334 30255.9
15.9488 30228.1
15.9641 30215.1
15.9794 30209.9
15.9947 30190.4
16.01 30141.6
16.0253 30137
16.0407 30113.7
16.056 30061.9
16.0713 30049.1
16.0866 30033.7
16.1019 30036.3
16.1172 30056.5
16.1326 30067.2
16.1479 30058
16.1632 30059.6
16.1785 30065.3
16.1938 30054.7
16.2091 30046.9
16.2244 30065.3
16.2398 30043.3
16.2551 30062
16.2704 30077.9
16.2857 30060.8
16.301 30050.5
16.3163 30052.2
16.3317 30053
16.347 30054.7
16.3623 30044.8
16.3776 30014.2
16.3929 29972.7
16.4082 29960.8
16.4236 29969.3
16.4389 29937.9
16.4542 29903.5
16.4695 29877.3
16.4848 29853
16.5001 29829.6
16.5155 29799.3
16.5308 29779.5
16.5461 29724.3
16.5614 29673.7
16.5767 29655.4
16.592 29607.4
16.6074 29523.3
16.6227 29490.1
16.638 29478.1
16.6533 29478.3
16.6686 29455.6
16.6839 29409.8
16.6993 29389.8
16.7146 29347.1
16.7299 29315.1
16.7452 29314.4
16.7605 29310.4
16.7758 29308.5
16.7912 29285.8
16.8065 29270.8
16.8218 29245.5
16.8371 29208
16.8524 29148.4
16.8677 29108.6
16.8831 29092.1
16.8984 29096.8
16.9137 29077.6
16.929 29052.7
16.9443 29063.2
16.9596 29076.7
16.9749 29093.3
16.9903 29074.1
17.0056 29033.6
17.0209 29013
17.0362 29001.1
17.0515 28985
17.0668 28906.7
17.0822 28862.4
17.0975 28853.4
17.1128 28833.7
17.1281 28809.6
17.1434 28802
17.1587 28816.8
17.1741 28817.3
17.1894 28794.5
17.2047 28773.8
17.22 28734.8
17.2353 28674
17.2506 28636.3
17.266 28616.7
17.2813 28590.2
17.2966 28596.4
17.3119 28578.7
17.3272 28552
17.3425 28568.9
17.3579 28578.4
17.3732 28560.9
17.3885 28563.4
17.4038 28566
17.4191 28575.5
17.4344 28549.3
17.4498 28525
17.4651 28552.4
17.4804 28569.4
17.4957 28544.6
17.511 28496.5
17.5263 28459.4
17.5417 28453.6
17.557 28459.3
17.5723 28481
17.5876 28460.7
17.6029 28468
17.6182 28483.7
17.6336 28475.5
17.6489 28470.7
17.6642 28523.1
17.6795 28550.8
17.6948 28570.5
17.7101 28556.3
17.7255 28534.2
17.7408 28514.8
17.7561 28489
17.7714 28467.8
17.7867 28478.5
17.802 28491.6
17.8173 28482.9
17.8327 28464.3
17.848 28449.6
17.8633 28452.1
17.8786 28430.3
17.8939 28426.7
17.9092 28432.4
17.9246 28418.9
17.9399 28404.4
17.9552 28376.2
17.9705 28375.8
17.9858 28356.2
18.0011 28331.6
18.0165 28338.7
18.0318 28340.9
18.0471 28324.5
18.0624 28311.9
18.0777 28305.9
18.093 28312.4
18.1084 28306
18.1237 28297.1
18.139 28291
18.1543 28282.5
18.1696 28267.2
18.1849 28222.9
18.2003 28217.8
18.2156 28255.3
18.2309 28260.1
18.2462 28254.9
18.2615 28262
18.2768 28278.9
18.2922 28292.7
18.3075 28317.6
18.3228 28336
18.3381 28342.1
18.3534 28365.5
18.3687 28395.1
18.3841 28416.7
18.3994 28442.9
18.4147 28461
18.43 28452.9
18.4453 28427.4
18.4606 28409.1
18.476 28402.8
18.4913 28357.8
18.5066 28275.6
18.5219 28238.6
18.5372 28207.3
18.5525 28174.8
18.5679 28105.6
18.5832 28071
18.5985 28102.4
18.6138 28116.1
18.6291 28080.3
18.6444 28048.9
18.6597 28034.7
18.6751 28008.7
18.6904 27993
18.7057 27980.5
18.721 27975.3
18.7363 27952.9
18.7516 27942
18.767 27951.9
18.7823 27919.7
18.7976 27865.4
18.8129 27835.3
18.8282 27806.7
18.8435 27769.5
18.8589 27754.8
18.8742 27752.2
18.8895 27748
18.9048 27735.9
18.9201 27687.3
18.9354 27652.7
18.9508 27629
18.9661 27605
18.9814 27586.2
18.9967 27529.2
19.012 27477.2
19.0273 27504.8
19.0427 27517
19.058 27494
19.0733 27463.6
19.0886 27430
19.1039 27444.1
19.1192 27417.9
19.1346 27389.8
19.1499 27402.8
19.1652 27415
19.1805 27396.9
19.1958 27403
19.2111 27421.5
19.2265 27436
19.2418 27401.6
19.2571 27357.7
19.2724 27320.6
19.2877 27286.1
19.303 27297.5
19.3184 27270.5
19.3337 27220.3
19.349 27223.1
19.3643 27196.2
19.3796 27174.2
19.3949 27167.8
19.4102 27144.3
19.4256 27114
19.4409 27082.3
19.4562 27065.5
19.4715 27052.8
19.4868 27042.3
19.5021 27021
19.5175 27016
19.5328 27036.1
19.5481 27005.4
19.5634 26952.6
19.5787 26921
19.594 26897.8
19.6094 26911.7
19.6247 26898
19.64 26862.6
19.6553 26869.1
19.6706 26855.6
19.6859 26837.6
19.7013 26847.7
19.7166 26842.4
19.7319 26853.2
19.7472 26845.3
19.7625 26802
19.7778 26803.7
19.7932 26805.9
19.8085 26790
19.8238 26800.7
19.8391 26780.9
19.8544 26736.1
19.8697 26722.8
19.8851 26726.6
19.9004 26728.1
19.9157 26677.6
19.931 26651.5
19.9463 26676.9
19.9616 26743.8
19.977 26753.4
19.9923 26713.8
20.0076 26689.6
20.0229 26667.2
20.0382 26665.7
20.0535 26640.9
20.0689 26602.7
20.0842 26592.9
20.0995 26607.8
20.1148 26613.7
20.1301 26604.2
20.1454 26599.7
20.1608 26614
20.1761 26622
20.1914 26601.6
20.2067 26555.1
20.222 26535.9
20.2373 26570.9
20.2526 26592.1
20.268 26560.2
20.2833 26516.4
20.2986 26519
20.3139 26505.8
20.3292 26495.9
20.3445 26513.2
20.3599 26523
20.3752 26506.2
20.3905 26501.5
20.4058 26535.3
20.4211 26514.5
20.4364 26481.1
20.4518 26453.7
20.4671 26449.1
20.4824 26465.1
20.4977 26476
20.513 26479.1
20.5283 26491.7
20.5437 26470.3
20.559 26469.1
20.5743 26454.9
20.5896 26457.1
20.6049 26490.1
20.6202 26462
20.6356 26408.3
20.6509 26413.1
20.6662 26407
20.6815 26398.6
20.6968 26413.2
20.7121 26388.8
20.7275 26378.6
20.7428 26377.7
20.7581 26370.6
20.7734 26381.9
20.7887 26365.3
20.804 26343.9
20.8194 26370.4
20.8347 26382.5
20.85 26377.4
20.8653 26336.5
20.8806 26315.7
20.8959 26285.5
20.9113 26280.8
20.9266 26310.5
20.9419 26306.8
20.9572 26291.3
20.9725 26278.5
20.9878 26226.1
21.0031 26205.1
21.0185 26294.1
21.0338 26318.6
21.0491 26314.2
21.0644 26302.9
21.0797 26290.9
21.095 26306
21.1104 26297.1
21.1257 26328.9
21.141 26339.7
21.1563 26304.3
21.1716 26290.1
21.1869 26287.8
21.2023 26299.8
21.2176 26271.2
21.2329 26242.7
21.2482 26278.9
21.2635 26270.2
21.2788 26245.8
21.2942 26259.5
21.3095 26222
21.3248 26259.9
21.3401 26285.8
21.3554 26253.8
21.3707 26220.7
21.3861 26243.1
21.4014 26220.5
21.4167 26231.3
21.432 26256.2
21.4473 26252.6
21.4626 26188.1
21.478 26159.8
21.4933 26220.3
21.5086 26249.7
21.5239 26254.6
21.5392 26238.5
21.5545 26216
21.5699 26166.2
21.5852 26174.1
21.6005 26209.8
21.6158 26193.9
21.6311 26157.5
21.6464 26155.9
21.6618 26155
21.6771 26195.6
21.6924 26211.4
21.7077 26210.2
21.723 26202
21.7383 26246.8
21.7537 26252.7
21.769 26249.9
21.7843 26245.1
21.7996 26206
21.8149 26233.9
21.8302 26219.7
21.8455 26197.4
21.8609 26219.7
21.8762 26222.5
21.8915 26234.4
21.9068 26262.4
21.9221 26272.9
21.9374 26296.8
21.9528 26313.2
21.9681 26271.7
21.9834 26296.3
21.9987 26290.7
22.014 26227.6
22.0293 26283.7
22.0447 26352.6
22.06 26371.8
22.0753 26374.7
22.0906 26333.3
22.1059 26312.1
22.1212 26358.2
22.1366 26390.9
22.1519 26418.4
22.1672 26389.8
22.1825 26382.7
22.1978 26423.8
22.2131 26424.8
22.2285 26425.8
22.2438 26436.3
22.2591 26439.7
22.2744 26425.6
22.2897 26383.2
22.305 26388.7
22.3204 26418.3
22.3357 26488.1
22.351 26479.2
22.3663 26484
22.3816 26561.3
22.3969 26559.7
22.4123 26510
22.4276 26550.2
22.4429 26506.7
22.4582 26471.1
22.4735 26497.1
22.4888 26512.1
22.5042 26491.2
22.5195 26489.4
22.5348 26487.6
22.5501 26505.3
22.5654 26492.4
22.5807 26485.9
22.596 26510.8
22.6114 26578.3
22.6267 26537.2
22.642 26519.1
22.6573 26514.6
22.6726 26524.3
22.6879 26553.4
22.7033 26542.4
22.7186 26529.3
22.7339 26541.1
22.7492 26539.1
22.7645 26567.2
22.7798 26576.4
22.7952 26585.2
22.8105 26595.1
22.8258 26586.3
22.8411 26575
22.8564 26595
22.8717 26608.2
22.8871 26571.1
22.9024 26617.7
22.9177 26650.7
22.933 26621.8
22.9483 26654.8
22.9636 26715.4
22.979 26692.5
22.9943 26531.2
