# xPDFsuite Configuration #
[PDF]
wavelength = 0.1
dataformat = QA
inputfile = B3_Bronze-3nm_ss_34.chi
backgroundfile = B3_Li-bkg_ss.chi
mode = xray
bgscale = 0.98705
composition = Ti O2
outputtype = iq
qmaxinst = 23.0
qmin = 0.1
qmax = 23.0
rmax = 30.0
rmin = 0.0
rstep = 0.01
rpoly = 0.9

[Misc]
inputdir = E:/Beamtime/PETRA-III_September-2019/BeamData/processed/Run1/B3/chi/chi_w_sigmas/chi_scaled
savedir = E:/Beamtime/PETRA-III_September-2019/BeamData/processed/Run1/B3
backgroundfilefull = E:/Beamtime/PETRA-III_September-2019/BeamData/processed/Run1/B3/chi/chi_w_sigmas/chi_scaled/B3_Li-bkg_ss.chi

#### start data
#S 1
#L Q($\AA^{-1}$)  intensity(a.u.)
0.111649 0
0.126965 0
0.142282 0
0.157598 0
0.172914 0
0.188231 0
0.203547 0
0.218864 0
0.23418 0
0.249496 0
0.264813 0
0.280129 0
0.295445 0
0.310762 0
0.326078 0
0.341394 0
0.356711 0
0.372027 0
0.387343 0
0.40266 0
0.417976 0
0.433292 0
0.448609 0
0.463925 0
0.479241 0
0.494558 0
0.509874 0
0.525191 0
0.540507 0
0.555823 0
0.57114 0
0.586456 0
0.601772 0
0.617089 0
0.632405 0
0.647721 0
0.663038 0
0.678354 0
0.69367 0
0.708987 0
0.724303 0
0.739619 0
0.754936 0
0.770252 0
0.785568 0
0.800885 0
0.816201 0
0.831518 0
0.846834 0
0.86215 1.35609
0.877467 97362.5
0.892783 96581.2
0.908099 96104.1
0.923416 96212.1
0.938732 96518.7
0.954048 96932.4
0.969365 96998.7
0.984681 96388.2
0.999997 94841.8
1.01531 92555.5
1.03063 88847.8
1.04595 84233.6
1.06126 78597.4
1.07658 71718.6
1.0919 64916.8
1.10721 57004.3
1.12253 49721
1.13784 42243.8
1.15316 35388.4
1.16848 29279.2
1.18379 23500.9
1.19911 18782.6
1.21443 14434.3
1.22974 10851.2
1.24506 8013.48
1.26038 5715.03
1.27569 4231.06
1.29101 3367.85
1.30632 3185.19
1.32164 3520.67
1.33696 4371.7
1.35227 5589.2
1.36759 7314.55
1.38291 9081.65
1.39822 11164.8
1.41354 13094.6
1.42886 14864.4
1.44417 16532
1.45949 17970
1.4748 19376.7
1.49012 20811.4
1.50544 22505.5
1.52075 24703.4
1.53607 27817.6
1.55139 32306.2
1.5667 37938.2
1.58202 45580.7
1.59733 54304
1.61265 64593.2
1.62797 76229.9
1.64328 88193.5
1.6586 101411
1.67392 113731
1.68923 125731
1.70455 136275
1.71987 145073
1.73518 152208
1.7505 157402
1.76581 161442
1.78113 163682
1.79645 164517
1.81176 163985
1.82708 162114
1.8424 158901
1.85771 155005
1.87303 150315
1.88835 145266
1.90366 140281
1.91898 135553
1.93429 131469
1.94961 128186
1.96493 125871
1.98024 124471
1.99556 123509
2.01088 122818
2.02619 121703
2.04151 120022
2.05683 117386
2.07214 113911
2.08746 109742
2.10277 104894
2.11809 99909.2
2.13341 94593.9
2.14872 89536.2
2.16404 84794.2
2.17936 80488.5
2.19467 76904
2.20999 73877.6
2.22531 71652.8
2.24062 69894.8
2.25594 68482.9
2.27125 67318.4
2.28657 66206.1
2.30189 65250.5
2.3172 64100.2
2.33252 62937.3
2.34784 61509.5
2.36315 60109.5
2.37847 58830.2
2.39379 57449.3
2.4091 56568.3
2.42442 55719
2.43973 55465
2.45505 55393.6
2.47037 55493.6
2.48568 55796.2
2.501 56220
2.51632 56685.9
2.53163 57069.5
2.54695 57207.3
2.56226 57304.1
2.57758 57401.9
2.5929 57443.9
2.60821 57513.8
2.62353 57495.6
2.63885 57543.3
2.65416 57527
2.66948 57585.2
2.6848 57730.1
2.70011 57977.1
2.71543 58443.7
2.73074 58976
2.74606 59705.9
2.76138 60677.9
2.77669 61952
2.79201 63627
2.80733 65684.3
2.82264 68441.6
2.83796 71851.7
2.85328 76157
2.86859 81621.2
2.88391 87963.9
2.89922 95668.9
2.91454 104117
2.92986 113364
2.94517 122993
2.96049 132405
2.97581 141660
2.99112 149585
3.00644 156275
3.02176 160991
3.03707 163549
3.05239 163953
3.0677 162276
3.08302 158804
3.09834 153953
3.11365 148288
3.12897 142241
3.14429 136346
3.1596 130843
3.17492 126261
3.19024 122317
3.20555 119304
3.22087 116858
3.23618 114656
3.2515 112519
3.26682 110131
3.28213 107518
3.29745 104400
3.31277 101032
3.32808 97304.4
3.3434 93341.8
3.35872 89580.2
3.37403 85837.6
3.38935 82676
3.40466 79822
3.41998 77410.3
3.4353 75426
3.45061 73822
3.46593 72733.3
3.48125 71888.9
3.49656 71347.9
3.51188 71065.2
3.52719 71122
3.54251 71450.1
3.55783 71928
3.57314 72619
3.58846 73447.4
3.60378 74363.9
3.61909 75251.6
3.63441 76147.6
3.64973 76951
3.66504 77571.8
3.68036 78025.6
3.69567 78319.6
3.71099 78553
3.72631 78851.7
3.74162 79198.8
3.75694 79766.4
3.77226 80528
3.78757 81518.7
3.80289 82741.3
3.81821 84120.7
3.83352 85620.2
3.84884 87202.1
3.86415 88617.6
3.87947 89803.3
3.89479 90631.2
3.9101 91088.9
3.92542 91109.5
3.94074 90714
3.95605 89882.9
3.97137 88851.2
3.98669 87531.9
4.002 86274.1
4.01732 85044.4
4.03263 84005
4.04795 83240.7
4.06327 82836.9
4.07858 82854.7
4.0939 83264.3
4.10922 83933.9
4.12453 84804.5
4.13985 85811.5
4.15517 86749.7
4.17048 87474.9
4.1858 87862.6
4.20111 87968.1
4.21643 87841.3
4.23175 87409.6
4.24706 86751.4
4.26238 85916.5
4.2777 85010.5
4.29301 84172.4
4.30833 83441.7
4.32365 82894.7
4.33896 82603.1
4.35428 82588.7
4.36959 82713.4
4.38491 83053.6
4.40023 83359.6
4.41554 83586.3
4.43086 83590
4.44618 83350.1
4.46149 82769.7
4.47681 81833.5
4.49213 80560.6
4.50744 78934.4
4.52276 77038.6
4.53807 74897
4.55339 72674.4
4.56871 70377.4
4.58402 68127.3
4.59934 65896.8
4.61466 63873.6
4.62997 62042.5
4.64529 60401
4.6606 58985.8
4.67592 57771.9
4.69124 56814.1
4.70655 56090.3
4.72187 55603.9
4.73719 55375.9
4.7525 55355.4
4.76782 55590.1
4.78314 56078.7
4.79845 56767.1
4.81377 57683.7
4.82908 58802.2
4.8444 60132.3
4.85972 61603.9
4.87503 63165.6
4.89035 64776.6
4.90567 66387.7
4.92098 68064.5
4.9363 69779.1
4.95162 71531.5
4.96693 73348.8
4.98225 75380.4
4.99756 77817.3
5.01288 80371.7
5.0282 82898.4
5.04351 85430.3
5.05883 87448
5.07415 88994.5
5.08946 89893.7
5.10478 89990.4
5.1201 89537.4
5.13541 88365.5
5.15073 86882.4
5.16604 85021.7
5.18136 83098.6
5.19668 81270.1
5.21199 79697.9
5.22731 78380.5
5.24263 77380.9
5.25794 76558.9
5.27326 75934.1
5.28858 75499.2
5.30389 75339.4
5.31921 75513
5.33452 75946.3
5.34984 76603.1
5.36516 77270.6
5.38047 77750.4
5.39579 77794.4
5.41111 77284.4
5.42642 76104.4
5.44174 74342.8
5.45706 71934.7
5.47237 69131.9
5.48769 65979
5.503 62792.9
5.51832 59831.7
5.53364 57153.4
5.54895 55032
5.56427 53344.1
5.57959 52052
5.5949 51107.4
5.61022 50320.4
5.62553 49719.5
5.64085 49139.6
5.65617 48648.6
5.67148 48226.1
5.6868 47906.4
5.70212 47621.6
5.71743 47406.3
5.73275 47316.8
5.74807 47314.1
5.76338 47455.3
5.7787 47721.5
5.79401 48180.4
5.80933 48813.1
5.82465 49538.8
5.83996 50324.5
5.85528 51127.5
5.8706 51970.5
5.88591 52791
5.90123 53596.5
5.91655 54310.2
5.93186 54952.8
5.94718 55490.2
5.96249 55908
5.97781 56187.1
5.99313 56311.9
6.00844 56275.5
6.02376 56080.1
6.03908 55818.4
6.05439 55498.4
6.06971 55163.1
6.08503 54819.1
6.10034 54508.9
6.11566 54274.3
6.13097 54071.2
6.14629 53925.6
6.16161 53834.3
6.17692 53831.1
6.19224 53913.2
6.20756 54059.5
6.22287 54292.4
6.23819 54569
6.25351 54874.1
6.26882 55129.5
6.28414 55264.8
6.29945 55229.5
6.31477 55016
6.33009 54648.9
6.3454 54117.7
6.36072 53467
6.37604 52754.4
6.39135 52034.1
6.40667 51371.3
6.42199 50828.5
6.4373 50401.9
6.45262 50077.1
6.46793 49869.8
6.48325 49779.6
6.49857 49738.6
6.51388 49690.3
6.5292 49659.2
6.54452 49597
6.55983 49548.4
6.57515 49536.8
6.59046 49561.6
6.60578 49665.9
6.6211 49799.8
6.63641 49997.2
6.65173 50227.6
6.66705 50520.9
6.68236 50866.7
6.69768 51277.4
6.713 51720.5
6.72831 52168.5
6.74363 52587.1
6.75894 53037.4
6.77426 53470.3
6.78958 53937.5
6.80489 54390.6
6.82021 54801.6
6.83553 55157.3
6.85084 55397
6.86616 55542.9
6.88148 55597
6.89679 55588.3
6.91211 55485.5
6.92742 55321.9
6.94274 55108.4
6.95806 54846.8
6.97337 54542.2
6.98869 54208.5
7.00401 53886.7
7.01932 53599.5
7.03464 53258.8
7.04996 52963.7
7.06527 52659.3
7.08059 52413.5
7.0959 52147.9
7.11122 51893.5
7.12654 51643.3
7.14185 51399
7.15717 51143.7
7.17249 50895.5
7.1878 50649
7.20312 50448.2
7.21844 50232.3
7.23375 50037.6
7.24907 49832.9
7.26438 49665.9
7.2797 49492.8
7.29502 49317.9
7.31033 49101.2
7.32565 48884.5
7.34097 48679.9
7.35628 48495.2
7.3716 48328.6
7.38692 48201.8
7.40223 48116.1
7.41755 48107.6
7.43286 48158.9
7.44818 48239
7.4635 48363.4
7.47881 48488.1
7.49413 48665.8
7.50945 48799.8
7.52476 48929.4
7.54008 48967.3
7.55539 48957.6
7.57071 48852.7
7.58603 48694.2
7.60134 48497.9
7.61666 48225.6
7.63198 47896.1
7.64729 47545.3
7.66261 47236
7.67793 47021.3
7.69324 46938.8
7.70856 46953.5
7.72387 47086.4
7.73919 47332.1
7.75451 47630
7.76982 47973.5
7.78514 48310.8
7.80046 48620.8
7.81577 48804.6
7.83109 48864.1
7.84641 48767.5
7.86172 48520.6
7.87704 48131.8
7.89235 47654
7.90767 47145.9
7.92299 46649.9
7.9383 46174
7.95362 45730
7.96894 45317.9
7.98425 44936.4
7.99957 44583.6
8.01489 44286.5
8.0302 44020.7
8.04552 43777.5
8.06083 43544.9
8.07615 43385.5
8.09147 43268.9
8.10678 43201.2
8.1221 43163.6
8.13742 43211.5
8.15273 43298.9
8.16805 43434.1
8.18337 43571.6
8.19868 43779.5
8.214 43980.4
8.22931 44197.4
8.24463 44397.9
8.25995 44534.5
8.27526 44609.6
8.29058 44641.4
8.3059 44663.7
8.32121 44618.1
8.33653 44524.6
8.35185 44396.2
8.36716 44231.7
8.38248 44090.1
8.39779 43949.4
8.41311 43828.2
8.42843 43724.9
8.44374 43650.6
8.45906 43565.5
8.47438 43468.2
8.48969 43361.3
8.50501 43265.9
8.52032 43142.7
8.53564 43037.7
8.55096 42929.7
8.56627 42828.7
8.58159 42732.5
8.59691 42634.5
8.61222 42610.7
8.62754 42589.6
8.64286 42616.6
8.65817 42681.2
8.67349 42775.6
8.6888 42916.3
8.70412 43105
8.71944 43421.7
8.73475 43871.6
8.75007 44434.9
8.76539 45119.5
8.7807 45832.5
8.79602 46507.3
8.81134 47118.9
8.82665 47621.2
8.84197 47970
8.85728 48162
8.8726 48250.8
8.88792 48224.7
8.90323 48178.3
8.91855 48169.4
8.93387 48253.4
8.94918 48419.8
8.9645 48599.8
8.97982 48754.5
8.99513 48799.3
9.01045 48739.8
9.02576 48514.8
9.04108 48124.1
9.0564 47556
9.07171 46869.3
9.08703 46118.3
9.10235 45357.9
9.11766 44646.3
9.13298 43989
9.1483 43405.8
9.16361 42928.6
9.17893 42549
9.19424 42193.8
9.20956 41882.1
9.22488 41567.8
9.24019 41299.7
9.25551 41034.6
9.27083 40818.8
9.28614 40597
9.30146 40403.9
9.31678 40231.2
9.33209 40093
9.34741 39959.6
9.36272 39867.5
9.37804 39801.6
9.39336 39774.4
9.40867 39749.8
9.42399 39742.5
9.43931 39780.2
9.45462 39820.2
9.46994 39898.4
9.48525 39988
9.50057 40152.6
9.51589 40320.6
9.5312 40488.9
9.54652 40575.2
9.56184 40614.7
9.57715 40575
9.59247 40453.8
9.60779 40259.7
9.6231 40022
9.63842 39784.6
9.65373 39513.5
9.66905 39236.2
9.68437 39016.9
9.69968 38887.6
9.715 38794.3
9.73032 38738.1
9.74563 38735.4
9.76095 38761.2
9.77627 38801.1
9.79158 38868.8
9.8069 38957.1
9.82221 39023.1
9.83753 39075
9.85285 39119.9
9.86816 39182.8
9.88348 39264
9.8988 39330
9.91411 39380.9
9.92943 39484.6
9.94475 39624.2
9.96006 39801.5
9.97538 39982.9
9.99069 40189.2
10.006 40406.5
10.0213 40634.9
10.0366 40840.6
10.052 41046.1
10.0673 41239.1
10.0826 41437.7
10.0979 41659.8
10.1132 41891.2
10.1285 42186.3
10.1439 42509
10.1592 42852.2
10.1745 43082.7
10.1898 43236.6
10.2051 43306.1
10.2204 43338.5
10.2358 43326.2
10.2511 43331.8
10.2664 43365
10.2817 43459.2
10.297 43610.9
10.3123 43833.6
10.3277 44030.1
10.343 44175.3
10.3583 44214.6
10.3736 44182.4
10.3889 44063.8
10.4042 43862.6
10.4196 43572.9
10.4349 43265.3
10.4502 42943.8
10.4655 42680.3
10.4808 42496.7
10.4961 42382.8
10.5115 42311.9
10.5268 42294.8
10.5421 42337.8
10.5574 42414
10.5727 42484.8
10.588 42546
10.6033 42580.9
10.6187 42604.6
10.634 42587.2
10.6493 42529.1
10.6646 42404.2
10.6799 42245.8
10.6952 42054.8
10.7106 41869.7
10.7259 41704.9
10.7412 41573.6
10.7565 41504.5
10.7718 41494.8
10.7871 41500.6
10.8025 41499.7
10.8178 41525.7
10.8331 41522.4
10.8484 41471.7
10.8637 41334.6
10.879 41151.6
10.8944 40915.1
10.9097 40637.2
10.925 40347.8
10.9403 40068
10.9556 39828.9
10.9709 39609.5
10.9863 39391.6
11.0016 39195
11.0169 39011
11.0322 38815.5
11.0475 38597.6
11.0628 38373
11.0782 38178.1
11.0935 37977.6
11.1088 37760.1
11.1241 37564.8
11.1394 37388.1
11.1547 37225.4
11.1701 37068.9
11.1854 36946.9
11.2007 36825.8
11.216 36695.8
11.2313 36594.4
11.2466 36470.2
11.262 36358.3
11.2773 36260.8
11.2926 36211
11.3079 36163.4
11.3232 36113.4
11.3385 36070.5
11.3538 36030.1
11.3692 35993.4
11.3845 35955.9
11.3998 35932
11.4151 35909.1
11.4304 35898.9
11.4457 35868
11.4611 35858.8
11.4764 35878.5
11.4917 35914.9
11.507 35941.1
11.5223 36007.8
11.5376 36065.4
11.553 36121.1
11.5683 36136
11.5836 36142.8
11.5989 36153.1
11.6142 36140.5
11.6295 36095.4
11.6449 36024
11.6602 35950.6
11.6755 35876.7
11.6908 35802.9
11.7061 35773.4
11.7214 35780.1
11.7368 35808.6
11.7521 35844.4
11.7674 35908.6
11.7827 35950.9
11.798 35999.9
11.8133 35995.6
11.8287 35960
11.844 35912
11.8593 35844.9
11.8746 35818.6
11.8899 35817.7
11.9052 35782.5
11.9206 35733.5
11.9359 35729.2
11.9512 35739.8
11.9665 35744.4
11.9818 35782.2
11.9971 35814.2
12.0125 35843.4
12.0278 35840
12.0431 35809.9
12.0584 35767.2
12.0737 35728.8
12.089 35702.9
12.1044 35655
12.1197 35604
12.135 35572
12.1503 35560.8
12.1656 35530
12.1809 35504.2
12.1962 35471.1
12.2116 35442.3
12.2269 35437.7
12.2422 35437.3
12.2575 35442.2
12.2728 35417
12.2881 35395.5
12.3035 35395.8
12.3188 35407.8
12.3341 35384.3
12.3494 35343.9
12.3647 35302.7
12.38 35275
12.3954 35232.1
12.4107 35227.6
12.426 35215.7
12.4413 35175.1
12.4566 35136
12.4719 35097.7
12.4873 35063.8
12.5026 35016.3
12.5179 34989
12.5332 34944.9
12.5485 34915.9
12.5638 34891.6
12.5792 34901.3
12.5945 34919.4
12.6098 34931.6
12.6251 34931.1
12.6404 34942.9
12.6557 34935.7
12.6711 34943.5
12.6864 34944.4
12.7017 34935.6
12.717 34936
12.7323 34993
12.7476 35026
12.763 35058.8
12.7783 35118.2
12.7936 35194.7
12.8089 35273.8
12.8242 35343.9
12.8395 35404.6
12.8549 35447
12.8702 35427
12.8855 35368.7
12.9008 35304.9
12.9161 35207
12.9314 35103.2
12.9467 35007.8
12.9621 34953.6
12.9774 34909.5
12.9927 34892.3
13.008 34881.1
13.0233 34870.7
13.0386 34849.4
13.054 34842.8
13.0693 34818.3
13.0846 34800.4
13.0999 34805.7
13.1152 34807.1
13.1305 34806.6
13.1459 34803.1
13.1612 34799.9
13.1765 34768
13.1918 34759.6
13.2071 34747.5
13.2224 34750.2
13.2378 34773.2
13.2531 34794.4
13.2684 34828.8
13.2837 34846
13.299 34875.5
13.3143 34906.6
13.3297 34946.7
13.345 34996.8
13.3603 35052.4
13.3756 35156.1
13.3909 35308.9
13.4062 35451.5
13.4216 35628.1
13.4369 35846.4
13.4522 36051.6
13.4675 36253.9
13.4828 36392.7
13.4981 36502.9
13.5135 36587.6
13.5288 36644.1
13.5441 36675.2
13.5594 36698.9
13.5747 36750.4
13.59 36796.1
13.6054 36790
13.6207 36729
13.636 36596.9
13.6513 36425.2
13.6666 36228.8
13.6819 36016.7
13.6973 35815.4
13.7126 35640.5
13.7279 35495.9
13.7432 35363.7
13.7585 35257.6
13.7738 35168.8
13.7891 35088.6
13.8045 35018.2
13.8198 34940.9
13.8351 34867.5
13.8504 34826.6
13.8657 34821
13.881 34819
13.8964 34836.7
13.9117 34871.8
13.927 34872.6
13.9423 34886.9
13.9576 34937.2
13.9729 34919.7
13.9883 34873
14.0036 34827.4
14.0189 34747.3
14.0342 34598.3
14.0495 34468.9
14.0648 34317.5
14.0802 34162.5
14.0955 34025.7
14.1108 33932.3
14.1261 33840.1
14.1414 33744.2
14.1567 33627.2
14.1721 33535.6
14.1874 33472.7
14.2027 33430.6
14.218 33399.7
14.2333 33359
14.2486 33311.2
14.264 33285
14.2793 33256.6
14.2946 33233.6
14.3099 33190.8
14.3252 33147.9
14.3405 33128.5
14.3559 33100.1
14.3712 33087.1
14.3865 33080.8
14.4018 33083
14.4171 33069.6
14.4324 33016.3
14.4478 32950.3
14.4631 32902.3
14.4784 32896.8
14.4937 32921.2
14.509 32945.2
14.5243 32954
14.5397 32956.2
14.555 32965.6
14.5703 33006.1
14.5856 33018.6
14.6009 33023.2
14.6162 33013.7
14.6315 32978.1
14.6469 32939
14.6622 32912.9
14.6775 32870.4
14.6928 32823.7
14.7081 32755.9
14.7234 32707.5
14.7388 32656
14.7541 32615.1
14.7694 32564.8
14.7847 32515.6
14.8 32459.9
14.8153 32388.6
14.8307 32333.6
14.846 32288
14.8613 32255
14.8766 32213.7
14.8919 32201.7
14.9072 32178.2
14.9226 32150.1
14.9379 32097.6
14.9532 32065.3
14.9685 32094.2
14.9838 32093.7
14.9991 32073.2
15.0145 32039.7
15.0298 32017.8
15.0451 31993.8
15.0604 31981.6
15.0757 31998.8
15.091 31997.3
15.1064 31983.3
15.1217 32004.6
15.137 31991.8
15.1523 31987.5
15.1676 32003.3
15.1829 32013.1
15.1983 32032.3
15.2136 32055.6
15.2289 32076.8
15.2442 32115.6
15.2595 32164.6
15.2748 32224.8
15.2902 32280.7
15.3055 32299.9
15.3208 32320.5
15.3361 32372.6
15.3514 32428.7
15.3667 32448.4
15.382 32447.4
15.3974 32446.1
15.4127 32434.8
15.428 32397.9
15.4433 32377.9
15.4586 32355.7
15.4739 32326.3
15.4893 32293.1
15.5046 32272.6
15.5199 32227.5
15.5352 32186.2
15.5505 32120.3
15.5658 32057
15.5812 32042
15.5965 32055.3
15.6118 32051.7
15.6271 32051
15.6424 32008.9
15.6577 31966.3
15.6731 31956.8
15.6884 31943.8
15.7037 31927.9
15.719 31896.2
15.7343 31878.5
15.7496 31859.2
15.765 31818.5
15.7803 31779
15.7956 31759.7
15.8109 31746.4
15.8262 31718.5
15.8415 31691.7
15.8569 31633.1
15.8722 31581.4
15.8875 31540.1
15.9028 31472.7
15.9181 31416.4
15.9334 31344.8
15.9488 31293.8
15.9641 31258.7
15.9794 31255.8
15.9947 31246.6
16.01 31195.4
16.0253 31174.4
16.0407 31161.2
16.056 31138.2
16.0713 31122
16.0866 31084.6
16.1019 31082.1
16.1172 31085.9
16.1326 31074.7
16.1479 31055.6
16.1632 31056.7
16.1785 31053.1
16.1938 31044
16.2091 31022.6
16.2244 31006.3
16.2398 30990.3
16.2551 31010.1
16.2704 31033.5
16.2857 31031.9
16.301 31026.5
16.3163 31007.3
16.3317 31012.1
16.347 31036.8
16.3623 31021.9
16.3776 30987.2
16.3929 30928.4
16.4082 30887
16.4236 30893
16.4389 30870.4
16.4542 30827.5
16.4695 30796.3
16.4848 30784.9
16.5001 30786.4
16.5155 30794
16.5308 30783.3
16.5461 30759.3
16.5614 30728.8
16.5767 30691.9
16.592 30629.3
16.6074 30562.1
16.6227 30545
16.638 30533.9
16.6533 30526.9
16.6686 30505.6
16.6839 30441.3
16.6993 30387.7
16.7146 30356.9
16.7299 30346.1
16.7452 30353.9
16.7605 30352.8
16.7758 30344.5
16.7912 30315.5
16.8065 30276
16.8218 30262.3
16.8371 30240.1
16.8524 30214.4
16.8677 30216.5
16.8831 30212.6
16.8984 30200.5
16.9137 30182.2
16.929 30141.9
16.9443 30126.4
16.9596 30148.4
16.9749 30165.6
16.9903 30115
17.0056 30064.3
17.0209 30020.3
17.0362 29999.4
17.0515 29987.4
17.0668 29970.4
17.0822 29977.1
17.0975 29978.6
17.1128 29920.8
17.1281 29863.9
17.1434 29838.2
17.1587 29819.8
17.1741 29805.5
17.1894 29790.6
17.2047 29791.4
17.22 29755
17.2353 29727.8
17.2506 29729.6
17.266 29712.4
17.2813 29689.6
17.2966 29688.3
17.3119 29686
17.3272 29642.3
17.3425 29606.5
17.3579 29588.9
17.3732 29576.9
17.3885 29579.4
17.4038 29596
17.4191 29605.6
17.4344 29615.6
17.4498 29627.8
17.4651 29633.9
17.4804 29595.9
17.4957 29574.1
17.511 29565.2
17.5263 29564.8
17.5417 29536.2
17.557 29520
17.5723 29557.8
17.5876 29581.1
17.6029 29577.3
17.6182 29561.4
17.6336 29567.8
17.6489 29575
17.6642 29561.9
17.6795 29572.2
17.6948 29611.5
17.7101 29582.1
17.7255 29570.9
17.7408 29589.2
17.7561 29583.1
17.7714 29561
17.7867 29542
17.802 29534.2
17.8173 29524.8
17.8327 29496.2
17.848 29464.6
17.8633 29473
17.8786 29455.9
17.8939 29449.5
17.9092 29470.3
17.9246 29478.1
17.9399 29459.1
17.9552 29433.1
17.9705 29414.4
17.9858 29370.4
18.0011 29349.8
18.0165 29375.6
18.0318 29367.6
18.0471 29331.2
18.0624 29293.9
18.0777 29283.4
18.093 29289.2
18.1084 29263.6
18.1237 29232
18.139 29232.9
18.1543 29218.9
18.1696 29235.2
18.1849 29217.2
18.2003 29172.5
18.2156 29181.8
18.2309 29187.2
18.2462 29167.5
18.2615 29186.5
18.2768 29188.7
18.2922 29160.2
18.3075 29182.1
18.3228 29235.8
18.3381 29245.5
18.3534 29247.5
18.3687 29298.2
18.3841 29317.1
18.3994 29337.3
18.4147 29354.8
18.43 29343.2
18.4453 29314.6
18.4606 29314.2
18.476 29302.9
18.4913 29258
18.5066 29226.3
18.5219 29212.5
18.5372 29162.8
18.5525 29145.3
18.5679 29134.4
18.5832 29104.3
18.5985 29075.8
18.6138 29050.5
18.6291 29017.7
18.6444 28988.3
18.6597 28976.4
18.6751 28967.1
18.6904 29003.6
18.7057 29005.8
18.721 28964.4
18.7363 28917.6
18.7516 28920.9
18.767 28914.2
18.7823 28866.3
18.7976 28794
18.8129 28759.2
18.8282 28767.5
18.8435 28727.8
18.8589 28674.1
18.8742 28656.9
18.8895 28640.6
18.9048 28623.1
18.9201 28608.6
18.9354 28576.5
18.9508 28546.6
18.9661 28533.4
18.9814 28534
18.9967 28504.4
19.012 28437.9
19.0273 28413.1
19.0427 28426.1
19.058 28418.3
19.0733 28404.4
19.0886 28362.3
19.1039 28355.1
19.1192 28361.1
19.1346 28382.9
19.1499 28374.6
19.1652 28381.7
19.1805 28335.2
19.1958 28301.1
19.2111 28304.1
19.2265 28316.6
19.2418 28343.1
19.2571 28341
19.2724 28292.6
19.2877 28250.1
19.303 28229.4
19.3184 28206.1
19.3337 28169.3
19.349 28162.7
19.3643 28141.2
19.3796 28095.4
19.3949 28067.3
19.4102 28063.7
19.4256 28070
19.4409 28019.3
19.4562 27945.2
19.4715 27939.4
19.4868 27955.1
19.5021 27932.5
19.5175 27951
19.5328 27959.6
19.5481 27923.7
19.5634 27913.7
19.5787 27879.4
19.594 27844.6
19.6094 27825.6
19.6247 27819.2
19.64 27807.2
19.6553 27832.4
19.6706 27823.4
19.6859 27825.4
19.7013 27842.4
19.7166 27840.8
19.7319 27797.9
19.7472 27744.8
19.7625 27733.5
19.7778 27716
19.7932 27703.5
19.8085 27676.7
19.8238 27691.1
19.8391 27689.9
19.8544 27658.9
19.8697 27644.9
19.8851 27651
19.9004 27642.3
19.9157 27598.5
19.931 27605.7
19.9463 27644.4
19.9616 27630.6
19.977 27587.6
19.9923 27573.8
20.0076 27568.1
20.0229 27553.1
20.0382 27527.2
20.0535 27504.6
20.0689 27508.9
20.0842 27541.9
20.0995 27531
20.1148 27502.1
20.1301 27506.2
20.1454 27486.9
20.1608 27493
20.1761 27514.5
20.1914 27476.1
20.2067 27402.5
20.222 27375.7
20.2373 27388.5
20.2526 27396.9
20.268 27448.7
20.2833 27474
20.2986 27469.6
20.3139 27429.8
20.3292 27418.8
20.3445 27428.2
20.3599 27456.7
20.3752 27460
20.3905 27444
20.4058 27438.6
20.4211 27449.8
20.4364 27464.6
20.4518 27483.1
20.4671 27462.2
20.4824 27463.5
20.4977 27475.5
20.513 27437.9
20.5283 27428.8
20.5437 27417.2
20.559 27406
20.5743 27385.2
20.5896 27398.2
20.6049 27403.2
20.6202 27374.1
20.6356 27344.2
20.6509 27356.9
20.6662 27350
20.6815 27364.9
20.6968 27359.4
20.7121 27281.2
20.7275 27275.8
20.7428 27301.1
20.7581 27282.2
20.7734 27239.5
20.7887 27232.9
20.804 27231
20.8194 27262.2
20.8347 27261.3
20.85 27303.9
20.8653 27281.4
20.8806 27268.2
20.8959 27266.8
20.9113 27244.3
20.9266 27259.1
20.9419 27271.7
20.9572 27276.6
20.9725 27264.9
20.9878 27200
21.0031 27170.9
21.0185 27258.7
21.0338 27246
21.0491 27204.4
21.0644 27228.9
21.0797 27212.6
21.095 27198.4
21.1104 27216.3
21.1257 27208.6
21.141 27198.5
21.1563 27170.5
21.1716 27187.8
21.1869 27189.7
21.2023 27203
21.2176 27184.8
21.2329 27170.7
21.2482 27183.6
21.2635 27184
21.2788 27190
21.2942 27192.2
21.3095 27134.1
21.3248 27125.9
21.3401 27128.9
21.3554 27156.5
21.3707 27138.2
21.3861 27174.9
21.4014 27158.3
21.4167 27137.3
21.432 27163.1
21.4473 27129.4
21.4626 27077.1
21.478 27093.3
21.4933 27107
21.5086 27108.3
21.5239 27144.6
21.5392 27135.6
21.5545 27103.7
21.5699 27106.7
21.5852 27126.2
21.6005 27173.7
21.6158 27134.6
21.6311 27068.5
21.6464 27088.3
21.6618 27111.5
21.6771 27145.3
21.6924 27153.2
21.7077 27159.4
21.723 27159.4
21.7383 27171.2
21.7537 27154.4
21.769 27162.3
21.7843 27172.2
21.7996 27172.4
21.8149 27166.9
21.8302 27139.6
21.8455 27093.9
21.8609 27108.5
21.8762 27153.7
21.8915 27143.4
21.9068 27125.4
21.9221 27136.8
21.9374 27173.6
21.9528 27166.2
21.9681 27144.2
21.9834 27172.2
21.9987 27179.7
22.014 27155.1
22.0293 27191.2
22.0447 27241.9
22.06 27253.8
22.0753 27243.5
22.0906 27257.6
22.1059 27266.8
22.1212 27288.1
22.1366 27259
22.1519 27253.6
22.1672 27264.9
22.1825 27285
22.1978 27313.6
22.2131 27309.5
22.2285 27341.6
22.2438 27321.7
22.2591 27301.8
22.2744 27264.5
22.2897 27262.2
22.305 27320.5
22.3204 27370.7
22.3357 27417.8
22.351 27376.2
22.3663 27340.8
22.3816 27369.4
22.3969 27379.2
22.4123 27363
22.4276 27388.6
22.4429 27390.3
22.4582 27399.5
22.4735 27398.8
22.4888 27383.9
22.5042 27372.8
22.5195 27399.2
22.5348 27430.7
22.5501 27437.7
22.5654 27423.7
22.5807 27431.9
22.596 27488.1
22.6114 27523.7
22.6267 27442.3
22.642 27394.6
22.6573 27398.9
22.6726 27434.6
22.6879 27487.9
22.7033 27521.2
22.7186 27500.1
22.7339 27503.2
22.7492 27478.7
22.7645 27477.7
22.7798 27486.3
22.7952 27494.6
22.8105 27488.5
22.8258 27519
22.8411 27502.4
22.8564 27537.8
22.8717 27563.6
22.8871 27571.1
22.9024 27601.7
22.9177 27557.3
22.933 27521.9
22.9483 27549.5
22.9636 27669.9
22.979 27658.8
22.9943 27593.8
