# xPDFsuite Configuration #
[PDF]
wavelength = 0.1
dataformat = QA
inputfile = B3_Bronze-3nm_ss_07.chi
backgroundfile = B3_Li-bkg_ss.chi
mode = xray
bgscale = 0.98705
composition = Ti O2
outputtype = iq
qmaxinst = 23.0
qmin = 0.1
qmax = 23.0
rmax = 30.0
rmin = 0.0
rstep = 0.01
rpoly = 0.9

[Misc]
inputdir = E:/Beamtime/PETRA-III_September-2019/BeamData/processed/Run1/B3/chi/chi_w_sigmas/chi_scaled
savedir = E:/Beamtime/PETRA-III_September-2019/BeamData/processed/Run1/B3
backgroundfilefull = E:/Beamtime/PETRA-III_September-2019/BeamData/processed/Run1/B3/chi/chi_w_sigmas/chi_scaled/B3_Li-bkg_ss.chi

#### start data
#S 1
#L Q($\AA^{-1}$)  intensity(a.u.)
0.111649 0
0.126965 0
0.142282 0
0.157598 0
0.172914 0
0.188231 0
0.203547 0
0.218864 0
0.23418 0
0.249496 0
0.264813 0
0.280129 0
0.295445 0
0.310762 0
0.326078 0
0.341394 0
0.356711 0
0.372027 0
0.387343 0
0.40266 0
0.417976 0
0.433292 0
0.448609 0
0.463925 0
0.479241 0
0.494558 0
0.509874 0
0.525191 0
0.540507 0
0.555823 0
0.57114 0
0.586456 0
0.601772 0
0.617089 0
0.632405 0
0.647721 0
0.663038 0
0.678354 0
0.69367 0
0.708987 0
0.724303 0
0.739619 0
0.754936 0
0.770252 0
0.785568 0
0.800885 0
0.816201 0
0.831518 0
0.846834 0
0.86215 1.26559
0.877467 90864.6
0.892783 91338.9
0.908099 91514.8
0.923416 92425.2
0.938732 93868.3
0.954048 95672.9
0.969365 97337.6
0.984681 98446
0.999997 98635.4
1.01531 97818
1.03063 95464
1.04595 91897.5
1.06126 87166.8
1.07658 81096.3
1.0919 74854.8
1.10721 67517.1
1.12253 60663.4
1.13784 53489.6
1.15316 46767
1.16848 40701.4
1.18379 34743.2
1.19911 29747.2
1.21443 24984.4
1.22974 21016.4
1.24506 17678.4
1.26038 14894.8
1.27569 12828
1.29101 11173.3
1.30632 10065.5
1.32164 9510.29
1.33696 9426.4
1.35227 9784.15
1.36759 10553.6
1.38291 11552.7
1.39822 12903.9
1.41354 14224.5
1.42886 15412.2
1.44417 16541.6
1.45949 17565
1.4748 18775.8
1.49012 20129.9
1.50544 22017.1
1.52075 24463.8
1.53607 27988.7
1.55139 32919.9
1.5667 38958.8
1.58202 47239.5
1.59733 56572.2
1.61265 67848.3
1.62797 80671.4
1.64328 94150.5
1.6586 109064
1.67392 123215
1.68923 137305
1.70455 149845
1.71987 160468
1.73518 169303
1.7505 175816
1.76581 180857
1.78113 183596
1.79645 184506
1.81176 183566
1.82708 181105
1.8424 177004
1.85771 172357
1.87303 166816
1.88835 161213
1.90366 155862
1.91898 150897
1.93429 146821
1.94961 143604
1.96493 141475
1.98024 140219
1.99556 139356
2.01088 138677
2.02619 137470
2.04151 135587
2.05683 132479
2.07214 128514
2.08746 123667
2.10277 118001
2.11809 112127
2.13341 105827
2.14872 99839
2.16404 94141.9
2.17936 88929.5
2.19467 84543.9
2.20999 80776.8
2.22531 77915.4
2.24062 75603.5
2.25594 73843.1
2.27125 72381.5
2.28657 71057.3
2.30189 69819
2.3172 68305
2.33252 66718.2
2.34784 64870.8
2.36315 63083
2.37847 61361.6
2.39379 59463.2
2.4091 58067.2
2.42442 56726.3
2.43973 56032.5
2.45505 55480.3
2.47037 55224.2
2.48568 55060.4
2.501 54967.8
2.51632 54802.2
2.53163 54762.6
2.54695 54781.8
2.56226 54864.5
2.57758 54958.3
2.5929 55061.3
2.60821 55215.5
2.62353 55387.9
2.63885 55526.8
2.65416 55626.3
2.66948 55583.9
2.6848 55513.4
2.70011 55359.1
2.71543 55294.4
2.73074 55230.6
2.74606 55342.2
2.76138 55703.9
2.77669 56363.4
2.79201 57405.4
2.80733 58867.3
2.82264 61113.1
2.83796 64065.6
2.85328 67870.2
2.86859 72756.3
2.88391 78470.8
2.89922 85513.1
2.91454 93241
2.92986 101811
2.94517 110888
2.96049 119967
2.97581 128965
2.99112 136829
3.00644 143582
3.02176 148505
3.03707 151416
3.05239 152310
3.0677 151202
3.08302 148270
3.09834 143959
3.11365 138828
3.12897 133310
3.14429 127947
3.1596 123088
3.17492 119240
3.19024 116291
3.20555 114434
3.22087 113356
3.23618 112766
3.2515 112323
3.26682 111639
3.28213 110527
3.29745 108670
3.31277 106263
3.32808 103124
3.3434 99474.3
3.35872 95719.9
3.37403 91718.4
3.38935 88017
3.40466 84470.6
3.41998 81328.5
3.4353 78680.3
3.45061 76398
3.46593 74707.5
3.48125 73294.8
3.49656 72294.7
3.51188 71583.9
3.52719 71178
3.54251 71189.3
3.55783 71479.2
3.57314 72085.2
3.58846 72916.1
3.60378 73945.2
3.61909 75150.1
3.63441 76464
3.64973 77767.8
3.66504 78925.5
3.68036 79894.3
3.69567 80634.8
3.71099 81133.7
3.72631 81461.1
3.74162 81549
3.75694 81743.1
3.77226 81929.3
3.78757 82325.8
3.80289 82975.3
3.81821 83968.4
3.83352 85217.8
3.84884 86754.9
3.86415 88337.8
3.87947 89848.2
3.89479 91081.8
3.9101 91889.2
3.92542 92240
3.94074 92076.5
3.95605 91369.1
3.97137 90263.4
3.98669 88699.1
4.002 87021.2
4.01732 85287.7
4.03263 83684.9
4.04795 82370.2
4.06327 81475.8
4.07858 81074.6
4.0939 81133.4
4.10922 81585.8
4.12453 82264.4
4.13985 83076
4.15517 83772.7
4.17048 84225.1
4.1858 84313.3
4.20111 84043.5
4.21643 83447.7
4.23175 82475.5
4.24706 81230.1
4.26238 79821.5
4.2777 78373.3
4.29301 77008.6
4.30833 75727.9
4.32365 74694.2
4.33896 73932.1
4.35428 73485.8
4.36959 73186.7
4.38491 73226.7
4.40023 73454.7
4.41554 73838.5
4.43086 74235.6
4.44618 74580
4.46149 74813.8
4.47681 74823
4.49213 74616.1
4.50744 74110.3
4.52276 73311.9
4.53807 72194.8
4.55339 70867.4
4.56871 69298.1
4.58402 67606.4
4.59934 65761
4.61466 63933.2
4.62997 62160.9
4.64529 60474.4
4.6606 58939.7
4.67592 57534.1
4.69124 56324.9
4.70655 55303.1
4.72187 54525.8
4.73719 54011.3
4.7525 53772.2
4.76782 53820.9
4.78314 54206
4.79845 54843.5
4.81377 55795
4.82908 56954.7
4.8444 58377.2
4.85972 59982.9
4.87503 61708.9
4.89035 63504.7
4.90567 65269.9
4.92098 67057.8
4.9363 68811.3
4.95162 70560.7
4.96693 72327.7
4.98225 74207.6
4.99756 76411.1
5.01288 78695.9
5.0282 80965.8
5.04351 83172.3
5.05883 84892.6
5.07415 86137.3
5.08946 86766
5.10478 86597.2
5.1201 85947.9
5.13541 84596.8
5.15073 82985
5.16604 81019.3
5.18136 78998.9
5.19668 77213.7
5.21199 75782
5.22731 74652.4
5.24263 73860.6
5.25794 73227.5
5.27326 72820.9
5.28858 72616.7
5.30389 72673
5.31921 73048.7
5.33452 73730.6
5.34984 74677.1
5.36516 75604.9
5.38047 76340.5
5.39579 76612.7
5.41111 76327.8
5.42642 75367.9
5.44174 73798.2
5.45706 71523.5
5.47237 68812.8
5.48769 65739.3
5.503 62593.8
5.51832 59657.9
5.53364 56925.1
5.54895 54714.6
5.56427 52935.8
5.57959 51535.2
5.5949 50498.4
5.61022 49623.7
5.62553 48919.1
5.64085 48228.9
5.65617 47632
5.67148 47065.8
5.6868 46628.1
5.70212 46230.4
5.71743 45911.2
5.73275 45769.9
5.74807 45775.4
5.76338 45951.3
5.7787 46291
5.79401 46833.2
5.80933 47607.7
5.82465 48492
5.83996 49500.4
5.85528 50518.8
5.8706 51576.9
5.88591 52591.8
5.90123 53500.9
5.91655 54284.1
5.93186 54954.9
5.94718 55495.9
5.96249 55841.5
5.97781 56060.6
5.99313 56054.3
6.00844 55947
6.02376 55656.5
6.03908 55373.7
6.05439 55048
6.06971 54777.4
6.08503 54508.7
6.10034 54329.7
6.11566 54212.7
6.13097 54161.4
6.14629 54134.1
6.16161 54164.6
6.17692 54228.8
6.19224 54362.8
6.20756 54498.9
6.22287 54706.3
6.23819 54968.6
6.25351 55206.3
6.26882 55368.4
6.28414 55381.7
6.29945 55267.9
6.31477 54955.4
6.33009 54476
6.3454 53809.5
6.36072 53049.4
6.37604 52243
6.39135 51435.9
6.40667 50732.6
6.42199 50137
6.4373 49686.4
6.45262 49335.2
6.46793 49107.4
6.48325 48954.2
6.49857 48845
6.51388 48789.2
6.5292 48760.2
6.54452 48711.5
6.55983 48665.5
6.57515 48668
6.59046 48693.6
6.60578 48805.7
6.6211 48958
6.63641 49185.7
6.65173 49429.2
6.66705 49722.4
6.68236 50048.3
6.69768 50450.8
6.713 50894.5
6.72831 51374.8
6.74363 51819.4
6.75894 52303.1
6.77426 52796.7
6.78958 53339.1
6.80489 53873.3
6.82021 54387.4
6.83553 54833.1
6.85084 55189.9
6.86616 55489.3
6.88148 55701.1
6.89679 55865
6.91211 55910.5
6.92742 55863.3
6.94274 55761.4
6.95806 55600.1
6.97337 55369.3
6.98869 55069.1
7.00401 54705.2
7.01932 54304.4
7.03464 53861.2
7.04996 53412.7
7.06527 52962.1
7.08059 52500
7.0959 52040.2
7.11122 51555.9
7.12654 51097.6
7.14185 50629.9
7.15717 50199.6
7.17249 49788.8
7.1878 49444.2
7.20312 49168.8
7.21844 48943.1
7.23375 48752.5
7.24907 48590.5
7.26438 48460.9
7.2797 48346.2
7.29502 48253.6
7.31033 48152.4
7.32565 48061.7
7.34097 47986.9
7.35628 47914.9
7.3716 47842.1
7.38692 47794.8
7.40223 47771.8
7.41755 47783.6
7.43286 47828.2
7.44818 47893.8
7.4635 48014.6
7.47881 48181
7.49413 48372.7
7.50945 48550.5
7.52476 48695.4
7.54008 48754
7.55539 48748
7.57071 48667.5
7.58603 48464
7.60134 48215.1
7.61666 47930.4
7.63198 47642.1
7.64729 47325.2
7.66261 47045.5
7.67793 46847.7
7.69324 46732.1
7.70856 46720.3
7.72387 46808.8
7.73919 47022.3
7.75451 47323.8
7.76982 47674.3
7.78514 47994.5
7.80046 48275.6
7.81577 48475.5
7.83109 48527.4
7.84641 48441.7
7.86172 48216
7.87704 47855.1
7.89235 47389.2
7.90767 46885.3
7.92299 46374
7.9383 45878.5
7.95362 45418.1
7.96894 45024.3
7.98425 44649.3
7.99957 44285.3
8.01489 43944.5
8.0302 43654.5
8.04552 43379.8
8.06083 43152.3
8.07615 42980.2
8.09147 42859.1
8.10678 42798.3
8.1221 42759.5
8.13742 42774.6
8.15273 42829.2
8.16805 42964
8.18337 43116
8.19868 43339.7
8.214 43572.4
8.22931 43876.7
8.24463 44171.1
8.25995 44406.5
8.27526 44556.8
8.29058 44663.2
8.3059 44752.9
8.32121 44767.4
8.33653 44753.1
8.35185 44686.9
8.36716 44564.2
8.38248 44420.8
8.39779 44272.9
8.41311 44106.6
8.42843 43931.9
8.44374 43781.1
8.45906 43600.1
8.47438 43419.3
8.48969 43235.2
8.50501 43056.5
8.52032 42870
8.53564 42687
8.55096 42523.6
8.56627 42368.7
8.58159 42229
8.59691 42107.7
8.61222 42036
8.62754 41996.3
8.64286 41995.8
8.65817 42059.3
8.67349 42150.8
8.6888 42271
8.70412 42466.1
8.71944 42794.6
8.73475 43254.2
8.75007 43840.2
8.76539 44530.4
8.7807 45278.9
8.79602 46017.9
8.81134 46709.6
8.82665 47274.8
8.84197 47707.7
8.85728 47954.8
8.8726 48078.9
8.88792 48111.3
8.90323 48114
8.91855 48134.3
8.93387 48240.5
8.94918 48446.4
8.9645 48676
8.97982 48873.3
8.99513 48955.7
9.01045 48925.9
9.02576 48726
9.04108 48338.3
9.0564 47787.4
9.07171 47127.7
9.08703 46410
9.10235 45646.8
9.11766 44906
9.13298 44241
9.1483 43647.7
9.16361 43154.3
9.17893 42744.7
9.19424 42392.3
9.20956 42064.8
9.22488 41764.4
9.24019 41488.5
9.25551 41244.7
9.27083 41021.5
9.28614 40802.2
9.30146 40613.7
9.31678 40451.9
9.33209 40328.4
9.34741 40238.8
9.36272 40170.6
9.37804 40119.2
9.39336 40095.1
9.40867 40084.7
9.42399 40094.8
9.43931 40162.3
9.45462 40238.1
9.46994 40358.7
9.48525 40498.3
9.50057 40670.7
9.51589 40846.6
9.5312 41003.2
9.54652 41115.3
9.56184 41176.8
9.57715 41142.9
9.59247 41007.2
9.60779 40811
9.6231 40561.4
9.63842 40277.3
9.65373 39968.5
9.66905 39679.5
9.68437 39446.1
9.69968 39275.6
9.715 39145.3
9.73032 39060.3
9.74563 39007.6
9.76095 39014.7
9.77627 39058.9
9.79158 39124.5
9.8069 39209.4
9.82221 39296.4
9.83753 39386.3
9.85285 39458.2
9.86816 39524.6
9.88348 39619.8
9.8988 39741.6
9.91411 39840.6
9.92943 39947.5
9.94475 40081
9.96006 40268.5
9.97538 40452.8
9.99069 40650.6
10.006 40848.2
10.0213 41092.6
10.0366 41318.3
10.052 41527.2
10.0673 41714.8
10.0826 41909.9
10.0979 42137.3
10.1132 42343.2
10.1285 42632.3
10.1439 42924.6
10.1592 43242.2
10.1745 43466.2
10.1898 43613.5
10.2051 43661
10.2204 43670
10.2358 43663.1
10.2511 43662.2
10.2664 43664
10.2817 43767.5
10.297 43950
10.3123 44235.8
10.3277 44508.9
10.343 44730.7
10.3583 44816.2
10.3736 44813.3
10.3889 44737.3
10.4042 44589.6
10.4196 44369
10.4349 44106.4
10.4502 43826.7
10.4655 43600.2
10.4808 43403.5
10.4961 43265.1
10.5115 43158.6
10.5268 43116.5
10.5421 43134.9
10.5574 43212.9
10.5727 43307.6
10.588 43394.4
10.6033 43459.3
10.6187 43497.9
10.634 43494.7
10.6493 43435.6
10.6646 43318.3
10.6799 43153.4
10.6952 42988.9
10.7106 42816.4
10.7259 42633
10.7412 42489.5
10.7565 42367.7
10.7718 42316.2
10.7871 42309.8
10.8025 42324.2
10.8178 42350.2
10.8331 42337.6
10.8484 42269.3
10.8637 42145
10.879 41990.6
10.8944 41783
10.9097 41526
10.925 41246
10.9403 40983.5
10.9556 40729
10.9709 40501.7
10.9863 40274.8
11.0016 40096.5
11.0169 39908.1
11.0322 39700.1
11.0475 39460.4
11.0628 39234.5
11.0782 39024.4
11.0935 38852.1
11.1088 38663.7
11.1241 38458.7
11.1394 38259.6
11.1547 38067.5
11.1701 37876.6
11.1854 37732
11.2007 37632.4
11.216 37515.6
11.2313 37397.8
11.2466 37256.7
11.262 37144.1
11.2773 37067.5
11.2926 37025.4
11.3079 36981.3
11.3232 36937
11.3385 36897.4
11.3538 36854.3
11.3692 36818.4
11.3845 36786.7
11.3998 36760.5
11.4151 36726.8
11.4304 36721.6
11.4457 36727.6
11.4611 36746
11.4764 36763.5
11.4917 36802.8
11.507 36845.8
11.5223 36930.8
11.5376 36992.8
11.553 37049.1
11.5683 37064
11.5836 37054.8
11.5989 37043.5
11.6142 37036.4
11.6295 37023
11.6449 36980.3
11.6602 36918.1
11.6755 36863.4
11.6908 36799.9
11.7061 36759.9
11.7214 36737.2
11.7368 36745.6
11.7521 36759.9
11.7674 36792.2
11.7827 36824.3
11.798 36867.8
11.8133 36894.9
11.8287 36893.9
11.844 36871
11.8593 36813.7
11.8746 36761.3
11.8899 36740.9
11.9052 36704.7
11.9206 36688.7
11.9359 36705.9
11.9512 36727.2
11.9665 36753.5
11.9818 36775.9
11.9971 36802.8
12.0125 36824.6
12.0278 36812.9
12.0431 36823.6
12.0584 36831.4
12.0737 36819
12.089 36785.4
12.1044 36727
12.1197 36661
12.135 36622.9
12.1503 36617.9
12.1656 36597.8
12.1809 36550
12.1962 36539.1
12.2116 36514.7
12.2269 36511.1
12.2422 36489.5
12.2575 36494.6
12.2728 36474.5
12.2881 36436.4
12.3035 36422
12.3188 36423.1
12.3341 36392.1
12.3494 36352.8
12.3647 36317.1
12.38 36287.6
12.3954 36261.4
12.4107 36269.7
12.426 36267.7
12.4413 36233.7
12.4566 36193.2
12.4719 36166.8
12.4873 36131.2
12.5026 36077.4
12.5179 36025.4
12.5332 35997.3
12.5485 35976.7
12.5638 35950.2
12.5792 35939.3
12.5945 35948.7
12.6098 35939.5
12.6251 35941.4
12.6404 35945.2
12.6557 35934.9
12.6711 35940.6
12.6864 35957.1
12.7017 35962.8
12.717 35951.8
12.7323 35931.3
12.7476 35946.3
12.763 36000.5
12.7783 36071.4
12.7936 36159.2
12.8089 36259.7
12.8242 36329.6
12.8395 36393.5
12.8549 36461.7
12.8702 36440.4
12.8855 36354.2
12.9008 36298
12.9161 36242.9
12.9314 36154.8
12.9467 36045.9
12.9621 35985.7
12.9774 35932.8
12.9927 35904.7
13.008 35900.8
13.0233 35867.8
13.0386 35856.1
13.054 35863.2
13.0693 35848.7
13.0846 35810.4
13.0999 35803.8
13.1152 35821.4
13.1305 35822.5
13.1459 35820.3
13.1612 35817.7
13.1765 35802.8
13.1918 35805.5
13.2071 35809.3
13.2224 35828.4
13.2378 35852.8
13.2531 35880.5
13.2684 35942.1
13.2837 35961.4
13.299 35969.9
13.3143 35981.9
13.3297 36012.3
13.345 36057
13.3603 36130
13.3756 36238.6
13.3909 36392.4
13.4062 36549.7
13.4216 36716.5
13.4369 36875.5
13.4522 37046.9
13.4675 37246.5
13.4828 37423.5
13.4981 37533.8
13.5135 37594.8
13.5288 37646.8
13.5441 37695
13.5594 37768.4
13.5747 37875.5
13.59 37944.7
13.6054 37955.1
13.6207 37914
13.636 37778.2
13.6513 37597.7
13.6666 37409.8
13.6819 37213.1
13.6973 37007.5
13.7126 36821.6
13.7279 36671.5
13.7432 36530.8
13.7585 36401.8
13.7738 36296.6
13.7891 36236.1
13.8045 36187.6
13.8198 36147.9
13.8351 36118.6
13.8504 36073.8
13.8657 36049.2
13.881 36049.8
13.8964 36064
13.9117 36094.7
13.927 36118.6
13.9423 36125.9
13.9576 36168.4
13.9729 36161.8
13.9883 36120.1
14.0036 36053.7
14.0189 35996.4
14.0342 35874.3
14.0495 35731.4
14.0648 35583.9
14.0802 35437.1
14.0955 35311.8
14.1108 35207.7
14.1261 35074.8
14.1414 34958.4
14.1567 34849.8
14.1721 34792.1
14.1874 34738.7
14.2027 34681.3
14.218 34646.7
14.2333 34635.8
14.2486 34628.4
14.264 34617.6
14.2793 34590.8
14.2946 34558.8
14.3099 34531.9
14.3252 34462.7
14.3405 34409.3
14.3559 34380.9
14.3712 34367.6
14.3865 34365.8
14.4018 34345.5
14.4171 34321.5
14.4324 34296.1
14.4478 34266
14.4631 34247.1
14.4784 34254
14.4937 34282.3
14.509 34327.1
14.5243 34355.4
14.5397 34369.9
14.555 34374.2
14.5703 34409.7
14.5856 34408.7
14.6009 34383.9
14.6162 34374.8
14.6315 34340.7
14.6469 34285
14.6622 34247.8
14.6775 34206.2
14.6928 34166.1
14.7081 34116.8
14.7234 34089.2
14.7388 34051.4
14.7541 33994.2
14.7694 33926
14.7847 33862.7
14.8 33843.3
14.8153 33816.3
14.8307 33766
14.846 33719.8
14.8613 33706.5
14.8766 33651.7
14.8919 33585.7
14.9072 33532.4
14.9226 33484.8
14.9379 33434.8
14.9532 33381.7
14.9685 33381.2
14.9838 33396.2
14.9991 33416.6
15.0145 33397
15.0298 33366.6
15.0451 33359.5
15.0604 33343.7
15.0757 33352.5
15.091 33356.3
15.1064 33337.9
15.1217 33329.5
15.137 33308.3
15.1523 33284.1
15.1676 33308.6
15.1829 33343.9
15.1983 33392.8
15.2136 33397.3
15.2289 33398.6
15.2442 33453.5
15.2595 33509.5
15.2748 33534.7
15.2902 33562.8
15.3055 33592.1
15.3208 33627.3
15.3361 33688.8
15.3514 33745.4
15.3667 33772.2
15.382 33772.2
15.3974 33779.4
15.4127 33805.3
15.428 33769.3
15.4433 33705.4
15.4586 33654.7
15.4739 33609.3
15.4893 33600.1
15.5046 33587.5
15.5199 33543.6
15.5352 33504.5
15.5505 33431.1
15.5658 33370.9
15.5812 33371
15.5965 33421.9
15.6118 33401.6
15.6271 33401.2
15.6424 33369.9
15.6577 33325.4
15.6731 33331.8
15.6884 33315.1
15.7037 33326.2
15.719 33299
15.7343 33250.3
15.7496 33209.5
15.765 33173.2
15.7803 33167.4
15.7956 33129.9
15.8109 33077.4
15.8262 33048.7
15.8415 33000.6
15.8569 32943.8
15.8722 32910.7
15.8875 32852.9
15.9028 32793.7
15.9181 32748.2
15.9334 32675
15.9488 32638.2
15.9641 32620.4
15.9794 32598.9
15.9947 32570.3
16.01 32513.1
16.0253 32485.5
16.0407 32466.1
16.056 32453.5
16.0713 32444
16.0866 32406.6
16.1019 32398.2
16.1172 32406.7
16.1326 32410.3
16.1479 32414.4
16.1632 32439.5
16.1785 32428.8
16.1938 32417.5
16.2091 32411.7
16.2244 32380.1
16.2398 32355.8
16.2551 32354
16.2704 32366.4
16.2857 32381.9
16.301 32363.5
16.3163 32324.2
16.3317 32323.6
16.347 32328.7
16.3623 32327.3
16.3776 32332
16.3929 32319.5
16.4082 32323.2
16.4236 32324.9
16.4389 32302.6
16.4542 32248
16.4695 32184.9
16.4848 32147.9
16.5001 32123.6
16.5155 32104.6
16.5308 32079.4
16.5461 32066.3
16.5614 32064.2
16.5767 32043.8
16.592 32017
16.6074 31957.1
16.6227 31930.2
16.638 31910.1
16.6533 31894.4
16.6686 31873.1
16.6839 31826.8
16.6993 31792.7
16.7146 31769.6
16.7299 31751.4
16.7452 31765.6
16.7605 31754.4
16.7758 31732.3
16.7912 31706.6
16.8065 31686.8
16.8218 31685.9
16.8371 31677.6
16.8524 31649.6
16.8677 31638.2
16.8831 31629.7
16.8984 31622.6
16.9137 31596
16.929 31548.4
16.9443 31534.1
16.9596 31536.1
16.9749 31535.1
16.9903 31532.1
17.0056 31520
17.0209 31483.7
17.0362 31462.9
17.0515 31438.3
17.0668 31403.3
17.0822 31383.8
17.0975 31351.4
17.1128 31313.8
17.1281 31308.7
17.1434 31295.7
17.1587 31277.6
17.1741 31248.9
17.1894 31238.6
17.2047 31271.9
17.22 31276.7
17.2353 31224.4
17.2506 31186
17.266 31169.3
17.2813 31146.3
17.2966 31123.5
17.3119 31113.6
17.3272 31099.9
17.3425 31106.2
17.3579 31110.5
17.3732 31066.8
17.3885 31074
17.4038 31108.2
17.4191 31097.8
17.4344 31074.1
17.4498 31051.5
17.4651 31048
17.4804 31053.3
17.4957 31032.9
17.511 30983.4
17.5263 30986.1
17.5417 30986.5
17.557 30983.9
17.5723 31019.9
17.5876 31032.9
17.6029 31055.6
17.6182 31040.2
17.6336 31046.6
17.6489 31093.9
17.6642 31107.2
17.6795 31093.6
17.6948 31113.8
17.7101 31113.9
17.7255 31115.9
17.7408 31118.3
17.7561 31105.2
17.7714 31068.6
17.7867 31050.7
17.802 31030.5
17.8173 30986.9
17.8327 30929.5
17.848 30887.5
17.8633 30904.2
17.8786 30929.2
17.8939 30942.8
17.9092 30957.3
17.9246 30968
17.9399 30975.3
17.9552 30942.8
17.9705 30914.7
17.9858 30876.3
18.0011 30824
18.0165 30826.2
18.0318 30820.7
18.0471 30792.2
18.0624 30782.1
18.0777 30751.9
18.093 30755.8
18.1084 30746.5
18.1237 30726.9
18.139 30728.2
18.1543 30706.4
18.1696 30687.6
18.1849 30682.6
18.2003 30669
18.2156 30693.3
18.2309 30716.1
18.2462 30692.5
18.2615 30697
18.2768 30690.3
18.2922 30650.5
18.3075 30658.8
18.3228 30712.7
18.3381 30741.7
18.3534 30776.7
18.3687 30828.4
18.3841 30872.7
18.3994 30912
18.4147 30912.1
18.43 30900.9
18.4453 30892.1
18.4606 30861.5
18.476 30841.6
18.4913 30822.4
18.5066 30769.7
18.5219 30754.9
18.5372 30743.3
18.5525 30702.4
18.5679 30663.5
18.5832 30615
18.5985 30581.8
18.6138 30563.4
18.6291 30559.3
18.6444 30553.2
18.6597 30532.3
18.6751 30548.1
18.6904 30589.8
18.7057 30582.3
18.721 30537.1
18.7363 30481.5
18.7516 30478.3
18.767 30469.2
18.7823 30410.8
18.7976 30374.7
18.8129 30366.2
18.8282 30353.4
18.8435 30287.8
18.8589 30237.9
18.8742 30195.2
18.8895 30182.6
18.9048 30187
18.9201 30163
18.9354 30137.7
18.9508 30147.4
18.9661 30166.1
18.9814 30138.3
18.9967 30063.5
19.012 29985.2
19.0273 29983.2
19.0427 30016
19.058 30010.7
19.0733 30000.1
19.0886 29986.2
19.1039 29971
19.1192 29955.7
19.1346 29987.1
19.1499 29947
19.1652 29903.7
19.1805 29888
19.1958 29891.9
19.2111 29903
19.2265 29902.5
19.2418 29897.6
19.2571 29881.6
19.2724 29839
19.2877 29831.8
19.303 29846.8
19.3184 29800.7
19.3337 29730.8
19.349 29720.9
19.3643 29709.2
19.3796 29660.6
19.3949 29628.6
19.4102 29632.6
19.4256 29631
19.4409 29597.6
19.4562 29596.7
19.4715 29589.6
19.4868 29572.9
19.5021 29528.2
19.5175 29533.8
19.5328 29562
19.5481 29544.1
19.5634 29499.6
19.5787 29440.7
19.594 29413.1
19.6094 29440.4
19.6247 29470.7
19.64 29440.4
19.6553 29447.1
19.6706 29463
19.6859 29420.6
19.7013 29409.2
19.7166 29398.7
19.7319 29400.3
19.7472 29399.3
19.7625 29388
19.7778 29356.2
19.7932 29328.5
19.8085 29303.4
19.8238 29315.9
19.8391 29310.8
19.8544 29278.8
19.8697 29247.1
19.8851 29235.7
19.9004 29287.4
19.9157 29268.6
19.931 29212.6
19.9463 29181.3
19.9616 29164.1
19.977 29153.1
19.9923 29164.5
20.0076 29173.5
20.0229 29158.2
20.0382 29146.4
20.0535 29095.8
20.0689 29072
20.0842 29094.3
20.0995 29096.8
20.1148 29095.6
20.1301 29075.7
20.1454 29067.5
20.1608 29073.3
20.1761 29089.6
20.1914 29093.1
20.2067 29029.7
20.222 28986.9
20.2373 29031
20.2526 29060.2
20.268 29051.3
20.2833 29071.4
20.2986 29093.7
20.3139 29054.6
20.3292 29013.5
20.3445 29019
20.3599 29046.6
20.3752 29040.1
20.3905 29034.4
20.4058 29033.2
20.4211 29049.9
20.4364 29074.5
20.4518 29089.4
20.4671 29064.8
20.4824 29056.1
20.4977 29025.4
20.513 29016.8
20.5283 29067
20.5437 29060.6
20.559 29036.9
20.5743 29001.4
20.5896 29027.6
20.6049 29044.5
20.6202 28996.3
20.6356 28943.6
20.6509 28992.9
20.6662 29019.6
20.6815 28996.7
20.6968 29001.9
20.7121 28954.6
20.7275 28937.2
20.7428 28969.6
20.7581 28987.3
20.7734 28958.2
20.7887 28939.1
20.804 28915.9
20.8194 28932.3
20.8347 28949.4
20.85 28933.6
20.8653 28899.4
20.8806 28892.3
20.8959 28887.3
20.9113 28876.4
20.9266 28902.6
20.9419 28942.3
20.9572 28917.5
20.9725 28896.8
20.9878 28857.1
21.0031 28839.8
21.0185 28893.6
21.0338 28891.3
21.0491 28872.5
21.0644 28857.2
21.0797 28851.3
21.095 28887.2
21.1104 28880.4
21.1257 28897.9
21.141 28909.9
21.1563 28875.8
21.1716 28857.9
21.1869 28862.7
21.2023 28854.8
21.2176 28825.3
21.2329 28800.7
21.2482 28840.8
21.2635 28847
21.2788 28817.8
21.2942 28849.7
21.3095 28823.2
21.3248 28826.4
21.3401 28830.4
21.3554 28862.9
21.3707 28812.4
21.3861 28838.8
21.4014 28782.2
21.4167 28749.2
21.432 28786
21.4473 28785.4
21.4626 28738.4
21.478 28722.2
21.4933 28785.5
21.5086 28809.7
21.5239 28817.5
21.5392 28836.2
21.5545 28806.1
21.5699 28780.9
21.5852 28774
21.6005 28780.4
21.6158 28766.1
21.6311 28750.5
21.6464 28760.4
21.6618 28770.2
21.6771 28826.9
21.6924 28833
21.7077 28812
21.723 28806.3
21.7383 28776.9
21.7537 28752.4
21.769 28735.6
21.7843 28767.3
21.7996 28779.6
21.8149 28826.2
21.8302 28837.8
21.8455 28800.2
21.8609 28790.7
21.8762 28788.6
21.8915 28806.7
21.9068 28823.9
21.9221 28859.7
21.9374 28888.6
21.9528 28854.9
21.9681 28803.1
21.9834 28865.9
21.9987 28876
22.014 28855.6
22.0293 28880.2
22.0447 28942.6
22.06 28938.7
22.0753 28923.6
22.0906 28944
22.1059 28951.1
22.1212 28996.7
22.1366 29007.8
22.1519 28996.1
22.1672 29007.3
22.1825 29024.6
22.1978 29061.9
22.2131 29064.5
22.2285 29034.8
22.2438 28993.1
22.2591 28974.9
22.2744 28970.1
22.2897 28984.3
22.305 29019.6
22.3204 29045.8
22.3357 29075.4
22.351 29096.7
22.3663 29075.5
22.3816 29099.1
22.3969 29166.1
22.4123 29168
22.4276 29164.2
22.4429 29161.7
22.4582 29140.2
22.4735 29143.3
22.4888 29173.5
22.5042 29174.7
22.5195 29165.6
22.5348 29176.3
22.5501 29220
22.5654 29175.8
22.5807 29155.5
22.596 29186
22.6114 29250.6
22.6267 29222.3
22.642 29188.7
22.6573 29209.2
22.6726 29214.8
22.6879 29200.6
22.7033 29256.2
22.7186 29270.7
22.7339 29251.5
22.7492 29217.3
22.7645 29250.8
22.7798 29282.1
22.7952 29242.9
22.8105 29241.6
22.8258 29270.4
22.8411 29254.8
22.8564 29287.8
22.8717 29306
22.8871 29263.1
22.9024 29284.6
22.9177 29285.1
22.933 29286.3
22.9483 29278.3
22.9636 29342.3
22.979 29370.7
22.9943 29392.4
