# xPDFsuite Configuration #
[PDF]
wavelength = 0.1
dataformat = QA
inputfile = B3_Bronze-3nm_ss_03.chi
backgroundfile = B3_Li-bkg_ss.chi
mode = xray
bgscale = 0.98705
composition = Ti O2
outputtype = iq
qmaxinst = 23.0
qmin = 0.1
qmax = 23.0
rmax = 30.0
rmin = 0.0
rstep = 0.01
rpoly = 0.9

[Misc]
inputdir = E:/Beamtime/PETRA-III_September-2019/BeamData/processed/Run1/B3/chi/chi_w_sigmas/chi_scaled
savedir = E:/Beamtime/PETRA-III_September-2019/BeamData/processed/Run1/B3
backgroundfilefull = E:/Beamtime/PETRA-III_September-2019/BeamData/processed/Run1/B3/chi/chi_w_sigmas/chi_scaled/B3_Li-bkg_ss.chi

#### start data
#S 1
#L Q($\AA^{-1}$)  intensity(a.u.)
0.111649 0
0.126965 0
0.142282 0
0.157598 0
0.172914 0
0.188231 0
0.203547 0
0.218864 0
0.23418 0
0.249496 0
0.264813 0
0.280129 0
0.295445 0
0.310762 0
0.326078 0
0.341394 0
0.356711 0
0.372027 0
0.387343 0
0.40266 0
0.417976 0
0.433292 0
0.448609 0
0.463925 0
0.479241 0
0.494558 0
0.509874 0
0.525191 0
0.540507 0
0.555823 0
0.57114 0
0.586456 0
0.601772 0
0.617089 0
0.632405 0
0.647721 0
0.663038 0
0.678354 0
0.69367 0
0.708987 0
0.724303 0
0.739619 0
0.754936 0
0.770252 0
0.785568 0
0.800885 0
0.816201 0
0.831518 0
0.846834 0
0.86215 1.29683
0.877467 93108
0.892783 93024.2
0.908099 92915
0.923416 93772.2
0.938732 95118.9
0.954048 97140.3
0.969365 98944.3
0.984681 100288
0.999997 100786
1.01531 100394
1.03063 98450
1.04595 95463
1.06126 91261
1.07658 85698.7
1.0919 79795.4
1.10721 72693.8
1.12253 65921.2
1.13784 58793.9
1.15316 52079.1
1.16848 45932.8
1.18379 39923
1.19911 34753
1.21443 29836.5
1.22974 25589.1
1.24506 22036.7
1.26038 18881.2
1.27569 16404.7
1.29101 14358
1.30632 12877.6
1.32164 11888
1.33696 11398.8
1.35227 11452.7
1.36759 11953.1
1.38291 12667.3
1.39822 13715.8
1.41354 14651.6
1.42886 15613.9
1.44417 16582.1
1.45949 17494.8
1.4748 18558.6
1.49012 19748
1.50544 21495.9
1.52075 23839.6
1.53607 27182
1.55139 31902.5
1.5667 37746
1.58202 45859.2
1.59733 55152.8
1.61265 66466.3
1.62797 79398.8
1.64328 93120.3
1.6586 108684
1.67392 123766
1.68923 139137
1.70455 153341
1.71987 165958
1.73518 176986
1.7505 185686
1.76581 192745
1.78113 197225
1.79645 199323
1.81176 199018
1.82708 196457
1.8424 191581
1.85771 185745
1.87303 178694
1.88835 171550
1.90366 164678
1.91898 158421
1.93429 153420
1.94961 149669
1.96493 147466
1.98024 146362
1.99556 145907
2.01088 145605
2.02619 144685
2.04151 142914
2.05683 139789
2.07214 135605
2.08746 130453
2.10277 124364
2.11809 118002
2.13341 111140
2.14872 104569
2.16404 98278.1
2.17936 92494.1
2.19467 87559.6
2.20999 83232.6
2.22531 79920.6
2.24062 77308.9
2.25594 75345.2
2.27125 73808.1
2.28657 72509.3
2.30189 71349.7
2.3172 70025.4
2.33252 68566.1
2.34784 66781.5
2.36315 64893
2.37847 62989.9
2.39379 60842.3
2.4091 59127.6
2.42442 57268.6
2.43973 56085.3
2.45505 55124.2
2.47037 54500.1
2.48568 54369.7
2.501 54527.4
2.51632 54930.1
2.53163 55233.4
2.54695 55922.3
2.56226 56574.5
2.57758 57110
2.5929 57394.1
2.60821 57581.5
2.62353 57460.2
2.63885 57122.8
2.65416 56580.9
2.66948 55915.1
2.6848 55177.8
2.70011 54378.6
2.71543 53759.7
2.73074 53233.2
2.74606 52958.2
2.76138 52983.3
2.77669 53398.8
2.79201 54278.2
2.80733 55536.4
2.82264 57500.5
2.83796 60102.3
2.85328 63514.2
2.86859 67963.3
2.88391 73146.1
2.89922 79651.7
2.91454 86806.7
2.92986 94796.2
2.94517 103342
2.96049 111989
2.97581 120844
2.99112 128798
3.00644 135927
3.02176 141461
3.03707 145247
3.05239 147069
3.0677 146921
3.08302 144836
3.09834 141203
3.11365 136441
3.12897 131011
3.14429 125517
3.1596 120310
3.17492 116078
3.19024 112834
3.20555 110942
3.22087 110158
3.23618 110227
3.2515 110747
3.26682 111409
3.28213 111838
3.29745 111637
3.31277 110745
3.32808 108973
3.3434 106373
3.35872 103286
3.37403 99549.9
3.38935 95801
3.40466 91899.9
3.41998 88232.3
3.4353 84856.7
3.45061 81862.4
3.46593 79449.6
3.48125 77369.2
3.49656 75824.2
3.51188 74653.3
3.52719 73997.5
3.54251 73884.1
3.55783 74201.8
3.57314 74801.8
3.58846 75680.1
3.60378 76835.2
3.61909 78156.4
3.63441 79515.1
3.64973 80807.8
3.66504 81884.7
3.68036 82769.6
3.69567 83336.3
3.71099 83637.2
3.72631 83714.4
3.74162 83558.8
3.75694 83462.6
3.77226 83325.9
3.78757 83377
3.80289 83749.6
3.81821 84431.2
3.83352 85481.8
3.84884 86956
3.86415 88636.3
3.87947 90446.1
3.89479 92115.6
3.9101 93511
3.92542 94533
3.94074 95014.6
3.95605 94898.6
3.97137 94254.7
3.98669 93018.1
4.002 91463.4
4.01732 89685.4
4.03263 87880.4
4.04795 86263
4.06327 84948.2
4.07858 84102.7
4.0939 83703.6
4.10922 83716.5
4.12453 84078.7
4.13985 84627.1
4.15517 85168.8
4.17048 85493.1
4.1858 85566.1
4.20111 85308.3
4.21643 84732.8
4.23175 83759.5
4.24706 82425.3
4.26238 80855.9
4.2777 79221
4.29301 77635
4.30833 76177.7
4.32365 74913.5
4.33896 73905.8
4.35428 73157.7
4.36959 72678.1
4.38491 72545.2
4.40023 72715.7
4.41554 73100.3
4.43086 73591.7
4.44618 74087.5
4.46149 74564.6
4.47681 74883.1
4.49213 74991.3
4.50744 74766.3
4.52276 74260.9
4.53807 73387.2
4.55339 72243.7
4.56871 70763.2
4.58402 69124.6
4.59934 67288
4.61466 65477.4
4.62997 63677.5
4.64529 61968.5
4.6606 60386.1
4.67592 58954.2
4.69124 57720.2
4.70655 56662.1
4.72187 55829.1
4.73719 55212.4
4.7525 54862.6
4.76782 54766
4.78314 54975.5
4.79845 55434.2
4.81377 56207.6
4.82908 57249.6
4.8444 58590.9
4.85972 60150.4
4.87503 61868.7
4.89035 63719.6
4.90567 65627.6
4.92098 67652.9
4.9363 69708.8
4.95162 71782.6
4.96693 73844.5
4.98225 76019.5
4.99756 78482.6
5.01288 80958.9
5.0282 83331
5.04351 85581.9
5.05883 87259.7
5.07415 88384.6
5.08946 88886.6
5.10478 88598.2
5.1201 87827.5
5.13541 86325.1
5.15073 84555.5
5.16604 82492.7
5.18136 80450.6
5.19668 78641.7
5.21199 77176.6
5.22731 75982.1
5.24263 75097
5.25794 74353.5
5.27326 73893.9
5.28858 73638.9
5.30389 73682.6
5.31921 74067
5.33452 74734.7
5.34984 75701.8
5.36516 76721.9
5.38047 77602.7
5.39579 78021
5.41111 77890.8
5.42642 77095.4
5.44174 75679.8
5.45706 73551.7
5.47237 70957
5.48769 67997.3
5.503 64950.5
5.51832 62095.5
5.53364 59428.6
5.54895 57212.2
5.56427 55357.5
5.57959 53820.5
5.5949 52594.7
5.61022 51542.5
5.62553 50727.6
5.64085 49933.9
5.65617 49253.6
5.67148 48648
5.6868 48169.9
5.70212 47710
5.71743 47359.5
5.73275 47160.8
5.74807 47076
5.76338 47165.8
5.7787 47439.2
5.79401 47874.3
5.80933 48526.2
5.82465 49314.3
5.83996 50246.1
5.85528 51239.1
5.8706 52284.2
5.88591 53324.1
5.90123 54303.3
5.91655 55198.2
5.93186 55982.5
5.94718 56587.9
5.96249 57014.6
5.97781 57302.7
5.99313 57395.2
6.00844 57298.5
6.02376 57017.7
6.03908 56685.6
6.05439 56342.7
6.06971 56028
6.08503 55760.6
6.10034 55562.8
6.11566 55477.8
6.13097 55428.8
6.14629 55385.5
6.16161 55366.1
6.17692 55393.1
6.19224 55484.5
6.20756 55588.6
6.22287 55754.4
6.23819 55946.3
6.25351 56155.5
6.26882 56316.8
6.28414 56335.8
6.29945 56172.5
6.31477 55804.3
6.33009 55288
6.3454 54595.5
6.36072 53780.1
6.37604 52901.9
6.39135 52043.7
6.40667 51281.7
6.42199 50621.5
6.4373 50094
6.45262 49665.6
6.46793 49398.5
6.48325 49262.6
6.49857 49195
6.51388 49180.7
6.5292 49207.2
6.54452 49247.4
6.55983 49250
6.57515 49278.4
6.59046 49300.1
6.60578 49387.3
6.6211 49494.2
6.63641 49674.8
6.65173 49839.5
6.66705 50062.6
6.68236 50350.9
6.69768 50717.6
6.713 51162.2
6.72831 51644.1
6.74363 52154.3
6.75894 52705.1
6.77426 53319.2
6.78958 53976.9
6.80489 54624.6
6.82021 55237.1
6.83553 55825.1
6.85084 56293.2
6.86616 56661.3
6.88148 56955.3
6.89679 57225.7
6.91211 57378
6.92742 57387.4
6.94274 57288.9
6.95806 57076.6
6.97337 56784.1
6.98869 56407.3
7.00401 55962
7.01932 55481.3
7.03464 54943.5
7.04996 54388.1
7.06527 53827.6
7.08059 53308.1
7.0959 52794.9
7.11122 52268.9
7.12654 51758.6
7.14185 51260.2
7.15717 50811.8
7.17249 50372.1
7.1878 49975
7.20312 49661.5
7.21844 49434.1
7.23375 49261.7
7.24907 49153.9
7.26438 49102
7.2797 49069.2
7.29502 49042.6
7.31033 49013
7.32565 49010.1
7.34097 48995.1
7.35628 48981.4
7.3716 48920
7.38692 48854
7.40223 48791.7
7.41755 48783.4
7.43286 48816.5
7.44818 48891.3
7.4635 49000.6
7.47881 49142.7
7.49413 49310
7.50945 49493.5
7.52476 49697
7.54008 49808.3
7.55539 49863
7.57071 49832.2
7.58603 49700.9
7.60134 49502.5
7.61666 49235.2
7.63198 48955.6
7.64729 48642.3
7.66261 48341.2
7.67793 48125.1
7.69324 48033.1
7.70856 48046
7.72387 48172.5
7.73919 48395.6
7.75451 48695.7
7.76982 49034.8
7.78514 49375.1
7.80046 49679.7
7.81577 49886.8
7.83109 49955.7
7.84641 49876.9
7.86172 49652.4
7.87704 49315.4
7.89235 48913.2
7.90767 48452.6
7.92299 47973.2
7.9383 47499.2
7.95362 47056.8
7.96894 46645.6
7.98425 46254.3
7.99957 45879.9
8.01489 45547.5
8.0302 45213.2
8.04552 44891.8
8.06083 44559.7
8.07615 44294
8.09147 44080.4
8.10678 43932.3
8.1221 43812.8
8.13742 43761.1
8.15273 43784.1
8.16805 43894.6
8.18337 44056
8.19868 44274.1
8.214 44549.2
8.22931 44829.7
8.24463 45124.9
8.25995 45365.4
8.27526 45559.9
8.29058 45710.6
8.3059 45851.5
8.32121 45919.4
8.33653 45951.4
8.35185 45922.3
8.36716 45828.1
8.38248 45700.4
8.39779 45561.6
8.41311 45375.6
8.42843 45165.4
8.44374 44940.8
8.45906 44742.1
8.47438 44526.4
8.48969 44323.9
8.50501 44110.8
8.52032 43898.2
8.53564 43695.6
8.55096 43518.8
8.56627 43376.9
8.58159 43241.8
8.59691 43109
8.61222 43004.6
8.62754 42908.9
8.64286 42870.4
8.65817 42847.7
8.67349 42856
8.6888 42888.2
8.70412 43003.8
8.71944 43248
8.73475 43651.1
8.75007 44170.5
8.76539 44810.3
8.7807 45553.3
8.79602 46302.6
8.81134 47050
8.82665 47674
8.84197 48182.5
8.85728 48518.8
8.8726 48754
8.88792 48909.7
8.90323 49019.6
8.91855 49133
8.93387 49293.8
8.94918 49529.2
8.9645 49771.6
8.97982 49968.7
8.99513 50075
9.01045 50096.8
9.02576 49952.3
9.04108 49612.8
9.0564 49082.4
9.07171 48409.6
9.08703 47672.8
9.10235 46928.4
9.11766 46226.8
9.13298 45579.3
9.1483 44996.9
9.16361 44484.7
9.17893 44075.5
9.19424 43710.1
9.20956 43369.2
9.22488 43037.7
9.24019 42758.7
9.25551 42488.8
9.27083 42251.8
9.28614 41992.4
9.30146 41744.9
9.31678 41512.5
9.33209 41341.9
9.34741 41194.2
9.36272 41083
9.37804 40974.2
9.39336 40911.7
9.40867 40877.8
9.42399 40868.9
9.43931 40937.6
9.45462 41056.2
9.46994 41218
9.48525 41354.4
9.50057 41537.6
9.51589 41752.6
9.5312 41951.1
9.54652 42067.4
9.56184 42102
9.57715 42039.1
9.59247 41889.3
9.60779 41656.9
9.6231 41345.8
9.63842 41013.1
9.65373 40691.6
9.66905 40393.6
9.68437 40134.1
9.69968 39948.2
9.715 39822.1
9.73032 39735.6
9.74563 39658.2
9.76095 39632.3
9.77627 39661.2
9.79158 39709.5
9.8069 39782
9.82221 39856
9.83753 39930.6
9.85285 39996.9
9.86816 40060.1
9.88348 40140.8
9.8988 40250.4
9.91411 40345.7
9.92943 40483.6
9.94475 40640.2
9.96006 40844.7
9.97538 41031.6
9.99069 41259.1
10.006 41510.6
10.0213 41794.4
10.0366 42062.7
10.052 42324.5
10.0673 42577.7
10.0826 42811.5
10.0979 43066.5
10.1132 43304
10.1285 43581.3
10.1439 43869.7
10.1592 44165.9
10.1745 44373
10.1898 44478.9
10.2051 44521
10.2204 44515
10.2358 44463.7
10.2511 44417.9
10.2664 44400
10.2817 44492.2
10.297 44668.1
10.3123 44932.9
10.3277 45190.6
10.343 45415.1
10.3583 45534.3
10.3736 45573.5
10.3889 45546.5
10.4042 45437.4
10.4196 45257.5
10.4349 45021.1
10.4502 44789.6
10.4655 44597.2
10.4808 44447.5
10.4961 44340.8
10.5115 44277.4
10.5268 44251.9
10.5421 44283.4
10.5574 44319.5
10.5727 44393.7
10.588 44472.6
10.6033 44557.2
10.6187 44624.1
10.634 44629
10.6493 44567.2
10.6646 44445.3
10.6799 44285.9
10.6952 44113.3
10.7106 43958
10.7259 43802.4
10.7412 43660.4
10.7565 43555.7
10.7718 43519.1
10.7871 43513.4
10.8025 43509.9
10.8178 43514.3
10.8331 43503.4
10.8484 43458.2
10.8637 43329.2
10.879 43155.2
10.8944 42930.3
10.9097 42672.4
10.925 42401.6
10.9403 42119.9
10.9556 41862.2
10.9709 41620.2
10.9863 41394.7
11.0016 41200.7
11.0169 41022.2
11.0322 40828.5
11.0475 40636.3
11.0628 40430.1
11.0782 40216.3
11.0935 39982.9
11.1088 39759.3
11.1241 39552.8
11.1394 39363.3
11.1547 39170.1
11.1701 38978
11.1854 38808.9
11.2007 38639.5
11.216 38484.5
11.2313 38361.4
11.2466 38238.5
11.262 38123.7
11.2773 38037
11.2926 37969.9
11.3079 37916.9
11.3232 37880.9
11.3385 37846.3
11.3538 37806.1
11.3692 37783.1
11.3845 37770.7
11.3998 37753.9
11.4151 37725.9
11.4304 37721
11.4457 37736.7
11.4611 37767.9
11.4764 37793.2
11.4917 37843.9
11.507 37889.5
11.5223 37958.1
11.5376 37992.6
11.553 38009.9
11.5683 38016
11.5836 38015.2
11.5989 38018.5
11.6142 38007.4
11.6295 37978.1
11.6449 37901.7
11.6602 37833.7
11.6755 37762.1
11.6908 37677.9
11.7061 37613.5
11.7214 37564.8
11.7368 37547.9
11.7521 37554.3
11.7674 37605
11.7827 37646.5
11.798 37702.5
11.8133 37709.2
11.8287 37695.2
11.844 37669.9
11.8593 37642.5
11.8746 37609.7
11.8899 37584.6
11.9052 37563.6
11.9206 37556.8
11.9359 37570.7
11.9512 37598
11.9665 37623.7
11.9818 37660.9
11.9971 37674.4
12.0125 37686.7
12.0278 37689.7
12.0431 37690.3
12.0584 37703.2
12.0737 37721.1
12.089 37723.8
12.1044 37722.7
12.1197 37710.2
12.135 37709.8
12.1503 37715.9
12.1656 37689.3
12.1809 37661.6
12.1962 37618.5
12.2116 37588.6
12.2269 37551.9
12.2422 37546.5
12.2575 37548.6
12.2728 37540.8
12.2881 37531.8
12.3035 37526
12.3188 37540.4
12.3341 37519
12.3494 37496.5
12.3647 37479
12.38 37474.3
12.3954 37438.6
12.4107 37413.5
12.426 37398.1
12.4413 37390.5
12.4566 37362.9
12.4719 37321.5
12.4873 37280.4
12.5026 37219.6
12.5179 37146
12.5332 37075.7
12.5485 37031.3
12.5638 37005
12.5792 36998.9
12.5945 36986
12.6098 36958.8
12.6251 36920.2
12.6404 36900.9
12.6557 36878.6
12.6711 36877.6
12.6864 36855.8
12.7017 36843.7
12.717 36849.5
12.7323 36872.6
12.7476 36894.8
12.763 36921.8
12.7783 36970
12.7936 37047.1
12.8089 37127.6
12.8242 37194.8
12.8395 37253.9
12.8549 37315.4
12.8702 37313.1
12.8855 37249.8
12.9008 37190.7
12.9161 37110.5
12.9314 37023.9
12.9467 36931.8
12.9621 36870.4
12.9774 36820.8
12.9927 36805.1
13.008 36799
13.0233 36787.8
13.0386 36783.4
13.054 36788
13.0693 36765.4
13.0846 36750.9
13.0999 36755.9
13.1152 36754.1
13.1305 36738.5
13.1459 36701.6
13.1612 36686
13.1765 36674.6
13.1918 36679
13.2071 36679.2
13.2224 36690.8
13.2378 36715.6
13.2531 36730.2
13.2684 36758.4
13.2837 36770
13.299 36817.4
13.3143 36861.6
13.3297 36895.7
13.345 36929.5
13.3603 37025.7
13.3756 37121.9
13.3909 37255.5
13.4062 37406.2
13.4216 37594
13.4369 37810.9
13.4522 38012.6
13.4675 38185.7
13.4828 38332.4
13.4981 38465.1
13.5135 38557.6
13.5288 38614
13.5441 38655.2
13.5594 38713.1
13.5747 38782.8
13.59 38824
13.6054 38860.2
13.6207 38829.7
13.636 38710.8
13.6513 38547.4
13.6666 38382.4
13.6819 38199.2
13.6973 37998.2
13.7126 37800.1
13.7279 37661.8
13.7432 37548.8
13.7585 37442.4
13.7738 37366.5
13.7891 37294.2
13.8045 37220.7
13.8198 37157.7
13.8351 37135.2
13.8504 37117
13.8657 37086
13.881 37072.2
13.8964 37081.1
13.9117 37129.5
13.927 37157.8
13.9423 37178
13.9576 37190.2
13.9729 37168.7
13.9883 37128.6
14.0036 37056
14.0189 36997.6
14.0342 36904.9
14.0495 36802.2
14.0648 36671.2
14.0802 36513
14.0955 36354.1
14.1108 36211.4
14.1261 36061
14.1414 35955.8
14.1567 35874.8
14.1721 35806.1
14.1874 35747.2
14.2027 35703.6
14.218 35659
14.2333 35635.1
14.2486 35582.2
14.264 35537.4
14.2793 35500
14.2946 35468.3
14.3099 35429.8
14.3252 35369.1
14.3405 35313.4
14.3559 35289.2
14.3712 35276
14.3865 35282.8
14.4018 35286.4
14.4171 35296.8
14.4324 35293.9
14.4478 35283.9
14.4631 35258.5
14.4784 35245.8
14.4937 35265.5
14.509 35302.2
14.5243 35328.4
14.5397 35332.9
14.555 35338.7
14.5703 35375
14.5856 35396.3
14.6009 35399.1
14.6162 35365.1
14.6315 35306.2
14.6469 35285.5
14.6622 35279.3
14.6775 35268
14.6928 35240
14.7081 35177.1
14.7234 35149.1
14.7388 35103.9
14.7541 35043.6
14.7694 34956.8
14.7847 34881
14.8 34838.7
14.8153 34793.4
14.8307 34736.4
14.846 34712.6
14.8613 34693.2
14.8766 34669
14.8919 34625.5
14.9072 34561.4
14.9226 34509.1
14.9379 34454.4
14.9532 34395.8
14.9685 34379.8
14.9838 34365.6
14.9991 34355.3
15.0145 34332.5
15.0298 34307.8
15.0451 34271.7
15.0604 34256.2
15.0757 34265.9
15.091 34259.5
15.1064 34235.1
15.1217 34230
15.137 34225.4
15.1523 34227.8
15.1676 34261
15.1829 34305.9
15.1983 34342.4
15.2136 34362.5
15.2289 34391.1
15.2442 34422.3
15.2595 34440
15.2748 34448.3
15.2902 34474.5
15.3055 34507.2
15.3208 34555.7
15.3361 34617.3
15.3514 34658.8
15.3667 34667.5
15.382 34671.4
15.3974 34707.1
15.4127 34717.4
15.428 34684.8
15.4433 34654.9
15.4586 34634.8
15.4739 34607.5
15.4893 34561.8
15.5046 34523.4
15.5199 34492.1
15.5352 34470.2
15.5505 34426.1
15.5658 34398.9
15.5812 34362.6
15.5965 34384.5
15.6118 34374.7
15.6271 34361.2
15.6424 34317.2
15.6577 34276.4
15.6731 34241.7
15.6884 34197.2
15.7037 34178.5
15.719 34156.4
15.7343 34145.1
15.7496 34147.5
15.765 34120.6
15.7803 34095.8
15.7956 34059.5
15.8109 34005.9
15.8262 33979
15.8415 33956
15.8569 33906.3
15.8722 33861.1
15.8875 33805.5
15.9028 33755.2
15.9181 33729.2
15.9334 33666.6
15.9488 33612.1
15.9641 33594.9
15.9794 33584.5
15.9947 33564.1
16.01 33506.1
16.0253 33469.8
16.0407 33464.4
16.056 33467
16.0713 33459.3
16.0866 33418.4
16.1019 33417.4
16.1172 33409.2
16.1326 33405.4
16.1479 33403.2
16.1632 33409.6
16.1785 33394.2
16.1938 33378.5
16.2091 33371.5
16.2244 33341.9
16.2398 33297.4
16.2551 33286.8
16.2704 33308.9
16.2857 33333.5
16.301 33341
16.3163 33315.9
16.3317 33286
16.347 33251.4
16.3623 33229.3
16.3776 33225.7
16.3929 33199.6
16.4082 33198.2
16.4236 33215
16.4389 33182.8
16.4542 33136.9
16.4695 33088.8
16.4848 33081
16.5001 33074.5
16.5155 33078.1
16.5308 33030.7
16.5461 32976.4
16.5614 32949.1
16.5767 32941.1
16.592 32925.5
16.6074 32871.2
16.6227 32844.2
16.638 32852.1
16.6533 32870.7
16.6686 32841.8
16.6839 32798.7
16.6993 32774.5
16.7146 32751.1
16.7299 32740.7
16.7452 32744
16.7605 32727.8
16.7758 32691.7
16.7912 32657.4
16.8065 32639.9
16.8218 32644.3
16.8371 32639.7
16.8524 32624.4
16.8677 32617.6
16.8831 32597.8
16.8984 32576.7
16.9137 32535.6
16.929 32509.2
16.9443 32506.6
16.9596 32503.5
16.9749 32536.3
16.9903 32542.7
17.0056 32495.9
17.0209 32450.7
17.0362 32432.6
17.0515 32418.4
17.0668 32375.2
17.0822 32365
17.0975 32333.8
17.1128 32292.2
17.1281 32263.6
17.1434 32251
17.1587 32253.2
17.1741 32237.8
17.1894 32224.9
17.2047 32231.1
17.22 32228.3
17.2353 32195.4
17.2506 32186.7
17.266 32164
17.2813 32132.5
17.2966 32115
17.3119 32076.2
17.3272 32032.9
17.3425 32053.5
17.3579 32059.7
17.3732 32026.4
17.3885 32028.4
17.4038 32054.6
17.4191 32084
17.4344 32099.4
17.4498 32098.6
17.4651 32066
17.4804 32051.2
17.4957 32063.4
17.511 32035.9
17.5263 32033.9
17.5417 32017.8
17.557 32003.3
17.5723 31996.7
17.5876 31980.2
17.6029 32001
17.6182 32006.2
17.6336 32027.3
17.6489 32052.3
17.6642 32076.6
17.6795 32078.6
17.6948 32079
17.7101 32051.5
17.7255 32049.4
17.7408 32061
17.7561 32026.9
17.7714 31992.9
17.7867 31998
17.802 31998.8
17.8173 31966.6
17.8327 31946.6
17.848 31941.6
17.8633 31952.1
17.8786 31932.9
17.8939 31916.5
17.9092 31910.5
17.9246 31910.7
17.9399 31929.4
17.9552 31930.4
17.9705 31906.2
17.9858 31879.3
18.0011 31859.8
18.0165 31845.1
18.0318 31829.3
18.0471 31779.8
18.0624 31736.6
18.0777 31726.3
18.093 31742.4
18.1084 31760.4
18.1237 31760
18.139 31740.1
18.1543 31696.4
18.1696 31683.3
18.1849 31666.1
18.2003 31646.4
18.2156 31654
18.2309 31670.4
18.2462 31664.6
18.2615 31670.2
18.2768 31666.1
18.2922 31664.8
18.3075 31690.2
18.3228 31715.1
18.3381 31740.7
18.3534 31751.3
18.3687 31770.8
18.3841 31794.7
18.3994 31828.8
18.4147 31817
18.43 31807
18.4453 31809.3
18.4606 31789.3
18.476 31786.4
18.4913 31752.5
18.5066 31706.9
18.5219 31691.7
18.5372 31643
18.5525 31612.4
18.5679 31587.5
18.5832 31593
18.5985 31593.9
18.6138 31578
18.6291 31595.3
18.6444 31564.2
18.6597 31520.1
18.6751 31518.5
18.6904 31532.3
18.7057 31532
18.721 31517.8
18.7363 31487.9
18.7516 31488.7
18.767 31488.7
18.7823 31445.2
18.7976 31381.1
18.8129 31368.7
18.8282 31357.3
18.8435 31326
18.8589 31314.4
18.8742 31282.6
18.8895 31224.5
18.9048 31188.7
18.9201 31163.6
18.9354 31120.4
18.9508 31113.2
18.9661 31086
18.9814 31054.3
18.9967 31026.9
19.012 30970.7
19.0273 30966.6
19.0427 30991.3
19.058 30994.2
19.0733 30985.4
19.0886 30964.1
19.1039 30972.7
19.1192 30960.4
19.1346 30945.5
19.1499 30917.9
19.1652 30907.3
19.1805 30902.6
19.1958 30896
19.2111 30897.5
19.2265 30919.9
19.2418 30936.5
19.2571 30899.3
19.2724 30856.4
19.2877 30842.3
19.303 30810.6
19.3184 30760.2
19.3337 30736.2
19.349 30759
19.3643 30755.3
19.3796 30704
19.3949 30667.7
19.4102 30650.7
19.4256 30679.4
19.4409 30693.2
19.4562 30668
19.4715 30646.7
19.4868 30641.7
19.5021 30589.1
19.5175 30536.3
19.5328 30522.3
19.5481 30509.8
19.5634 30477.7
19.5787 30453.8
19.594 30426.3
19.6094 30418.4
19.6247 30426.1
19.64 30418.3
19.6553 30425.3
19.6706 30382.9
19.6859 30370.9
19.7013 30378.7
19.7166 30369
19.7319 30374.3
19.7472 30350.9
19.7625 30312.1
19.7778 30301
19.7932 30313.3
19.8085 30274.1
19.8238 30263.4
19.8391 30278.8
19.8544 30270
19.8697 30265.2
19.8851 30259.9
19.9004 30268.9
19.9157 30241.1
19.931 30213.6
19.9463 30208.6
19.9616 30207.3
19.977 30184.3
19.9923 30144.2
20.0076 30137.6
20.0229 30138.4
20.0382 30174.9
20.0535 30140.7
20.0689 30115.2
20.0842 30100.7
20.0995 30101.2
20.1148 30087.6
20.1301 30063
20.1454 30053.1
20.1608 30064.8
20.1761 30080
20.1914 30044.4
20.2067 30038.4
20.222 30049.2
20.2373 30052.3
20.2526 30075
20.268 30077
20.2833 30080.3
20.2986 30098
20.3139 30067.1
20.3292 30039.1
20.3445 30024.4
20.3599 30028.2
20.3752 30016.4
20.3905 30041.4
20.4058 30074.6
20.4211 30067.2
20.4364 30080.1
20.4518 30121.6
20.4671 30118.2
20.4824 30122.6
20.4977 30092.1
20.513 30094.3
20.5283 30106.2
20.5437 30088.2
20.559 30081.1
20.5743 30065
20.5896 30061.8
20.6049 30097.2
20.6202 30078.6
20.6356 30032.9
20.6509 30057.1
20.6662 30090.8
20.6815 30067.3
20.6968 30044.6
20.7121 29980.2
20.7275 29955
20.7428 29982.4
20.7581 30002.2
20.7734 29997.8
20.7887 29994.8
20.804 29985.6
20.8194 30009.5
20.8347 30006
20.85 29975.3
20.8653 29946.1
20.8806 29936.8
20.8959 29917.5
20.9113 29910
20.9266 29936.1
20.9419 29930
20.9572 29907
20.9725 29913.5
20.9878 29891.9
21.0031 29898.6
21.0185 29985.8
21.0338 29964.6
21.0491 29924.5
21.0644 29911.6
21.0797 29885.4
21.095 29881.7
21.1104 29891.8
21.1257 29911.2
21.141 29925.6
21.1563 29928.9
21.1716 29961
21.1869 29950.5
21.2023 29914.6
21.2176 29886.3
21.2329 29864.3
21.2482 29878.9
21.2635 29875.8
21.2788 29880.7
21.2942 29935.1
21.3095 29908.8
21.3248 29943.6
21.3401 29950.7
21.3554 29923.2
21.3707 29865.1
21.3861 29891.8
21.4014 29850.4
21.4167 29855.7
21.432 29882.1
21.4473 29881.9
21.4626 29846.4
21.478 29833.1
21.4933 29884.8
21.5086 29918.9
21.5239 29911.3
21.5392 29889.1
21.5545 29871.9
21.5699 29883.4
21.5852 29876.2
21.6005 29842.3
21.6158 29830
21.6311 29835.1
21.6464 29847.2
21.6618 29858.9
21.6771 29878.6
21.6924 29902.8
21.7077 29874.8
21.723 29844.9
21.7383 29847.7
21.7537 29867
21.769 29879.3
21.7843 29881.8
21.7996 29868.3
21.8149 29891.1
21.8302 29860.2
21.8455 29859.9
21.8609 29872.6
21.8762 29870.2
21.8915 29895.5
21.9068 29877.4
21.9221 29895.9
21.9374 29923.9
21.9528 29923.8
21.9681 29933.5
21.9834 29967.6
21.9987 29961.2
22.014 29942
22.0293 29973.6
22.0447 30001.8
22.06 29987.6
22.0753 29987.1
22.0906 29943.3
22.1059 29963.9
22.1212 30000.2
22.1366 30021.1
22.1519 30085.3
22.1672 30072.5
22.1825 30115.6
22.1978 30145
22.2131 30105.6
22.2285 30124.2
22.2438 30102.9
22.2591 30079.9
22.2744 30054.2
22.2897 30013.6
22.305 30040.8
22.3204 30105.6
22.3357 30160.6
22.351 30154.6
22.3663 30118.5
22.3816 30157
22.3969 30221.7
22.4123 30186
22.4276 30159.2
22.4429 30142.5
22.4582 30158.1
22.4735 30225.6
22.4888 30233.4
22.5042 30209.6
22.5195 30207.8
22.5348 30191.1
22.5501 30247.8
22.5654 30247
22.5807 30223.2
22.596 30192
22.6114 30242.8
22.6267 30227.3
22.642 30225.4
22.6573 30241.2
22.6726 30253.8
22.6879 30294.6
22.7033 30272.1
22.7186 30295.1
22.7339 30274.7
22.7492 30249.4
22.7645 30276.7
22.7798 30328.3
22.7952 30325.2
22.8105 30312.5
22.8258 30292.9
22.8411 30239.2
22.8564 30290
22.8717 30345.9
22.8871 30342.1
22.9024 30419.2
22.9177 30386.2
22.933 30371.2
22.9483 30400.4
22.9636 30448.4
22.979 30413.2
22.9943 30504.4
