# xPDFsuite Configuration #
[PDF]
wavelength = 0.1
dataformat = QA
inputfile = B3_Bronze-3nm_ss_28.chi
backgroundfile = B3_Li-bkg_ss.chi
mode = xray
bgscale = 0.98705
composition = Ti O2
outputtype = iq
qmaxinst = 23.0
qmin = 0.1
qmax = 23.0
rmax = 30.0
rmin = 0.0
rstep = 0.01
rpoly = 0.9

[Misc]
inputdir = E:/Beamtime/PETRA-III_September-2019/BeamData/processed/Run1/B3/chi/chi_w_sigmas/chi_scaled
savedir = E:/Beamtime/PETRA-III_September-2019/BeamData/processed/Run1/B3
backgroundfilefull = E:/Beamtime/PETRA-III_September-2019/BeamData/processed/Run1/B3/chi/chi_w_sigmas/chi_scaled/B3_Li-bkg_ss.chi

#### start data
#S 1
#L Q($\AA^{-1}$)  intensity(a.u.)
0.111649 0
0.126965 0
0.142282 0
0.157598 0
0.172914 0
0.188231 0
0.203547 0
0.218864 0
0.23418 0
0.249496 0
0.264813 0
0.280129 0
0.295445 0
0.310762 0
0.326078 0
0.341394 0
0.356711 0
0.372027 0
0.387343 0
0.40266 0
0.417976 0
0.433292 0
0.448609 0
0.463925 0
0.479241 0
0.494558 0
0.509874 0
0.525191 0
0.540507 0
0.555823 0
0.57114 0
0.586456 0
0.601772 0
0.617089 0
0.632405 0
0.647721 0
0.663038 0
0.678354 0
0.69367 0
0.708987 0
0.724303 0
0.739619 0
0.754936 0
0.770252 0
0.785568 0
0.800885 0
0.816201 0
0.831518 0
0.846834 0
0.86215 1.51199
0.877467 108555
0.892783 109051
0.908099 109796
0.923416 111310
0.938732 113415
0.954048 115141
0.969365 116122
0.984681 115883
0.999997 113959
1.01531 110660
1.03063 105164
1.04595 98609.4
1.06126 90600.6
1.07658 81457.3
1.0919 72395.9
1.10721 62485.8
1.12253 53465.5
1.13784 44578
1.15316 36600.9
1.16848 29758.8
1.18379 23396.4
1.19911 18334.5
1.21443 13793.1
1.22974 10164.5
1.24506 7378.81
1.26038 5237.32
1.27569 3850.89
1.29101 3043.65
1.30632 2810.61
1.32164 3187.63
1.33696 3983.58
1.35227 5189.8
1.36759 6896.48
1.38291 8618.36
1.39822 10743.9
1.41354 12694.3
1.42886 14581.8
1.44417 16300.1
1.45949 17950.4
1.4748 19604.5
1.49012 21518
1.50544 23965.7
1.52075 27167.1
1.53607 31500
1.55139 37255.6
1.5667 43969
1.58202 52544.4
1.59733 61880.7
1.61265 72055.1
1.62797 82686.6
1.64328 92570.3
1.6586 102269
1.67392 110187
1.68923 116725
1.70455 121291
1.71987 124194
1.73518 125672
1.7505 126109
1.76581 126305
1.78113 126076
1.79645 125973
1.81176 125696
1.82708 125345
1.8424 124454
1.85771 123303
1.87303 121472
1.88835 119197
1.90366 116560
1.91898 113615
1.93429 110642
1.94961 107802
1.96493 105429
1.98024 103351
1.99556 101310
2.01088 99319.1
2.02619 96721.7
2.04151 93661.8
2.05683 89818.6
2.07214 85671.1
2.08746 81353.4
2.10277 77041.9
2.11809 73150.3
2.13341 69519
2.14872 66444.2
2.16404 63838.4
2.17936 61694.2
2.19467 60063.9
2.20999 58703.6
2.22531 57672.5
2.24062 56780.4
2.25594 55982.6
2.27125 55150.9
2.28657 54259.2
2.30189 53449.4
2.3172 52659.8
2.33252 51965.3
2.34784 51351.4
2.36315 50890.9
2.37847 50595.3
2.39379 50312.7
2.4091 50379.3
2.42442 50487.3
2.43973 50825.4
2.45505 51130
2.47037 51335.9
2.48568 51670.7
2.501 51996.1
2.51632 52385.9
2.53163 52553.8
2.54695 52723.8
2.56226 52970.9
2.57758 53319.9
2.5929 53617.1
2.60821 53902
2.62353 54065.3
2.63885 54205.6
2.65416 54357.3
2.66948 54511.5
2.6848 54840.1
2.70011 55290.1
2.71543 56249.5
2.73074 57429.3
2.74606 59201
2.76138 61510.9
2.77669 64527.9
2.79201 68470.8
2.80733 73044.2
2.82264 78902.3
2.83796 85862.1
2.85328 94124.6
2.86859 103987
2.88391 114665
2.89922 126846
2.91454 139232
2.92986 151636
2.94517 163360
2.96049 173624
2.97581 182415
2.99112 188792
3.00644 192849
3.02176 194366
3.03707 193538
3.05239 190655
3.0677 186226
3.08302 180563
3.09834 174265
3.11365 167656
3.12897 160981
3.14429 154393
3.1596 147818
3.17492 141585
3.19024 135116
3.20555 129058
3.22087 123030
3.23618 116996
3.2515 111189
3.26682 105454
3.28213 100073
3.29745 94810.4
3.31277 90027.6
3.32808 85636.8
3.3434 81598.7
3.35872 78233.8
3.37403 75240.3
3.38935 72985.5
3.40466 71189
3.41998 69877.1
3.4353 68985.8
3.45061 68420.6
3.46593 68159.3
3.48125 68039.2
3.49656 68058
3.51188 68062.6
3.52719 68102.8
3.54251 68134.1
3.55783 68069.8
3.57314 67870.7
3.58846 67554.9
3.60378 67172.4
3.61909 66776.1
3.63441 66389.8
3.64973 66189.9
3.66504 66101.2
3.68036 66347.4
3.69567 66955.5
3.71099 67919.6
3.72631 69239.8
3.74162 70807.1
3.75694 72505.9
3.77226 74229.5
3.78757 75806.9
3.80289 77126.4
3.81821 78043.3
3.83352 78545.6
3.84884 78648.3
3.86415 78317.7
3.87947 77546.8
3.89479 76490.9
3.9101 75211.5
3.92542 73893.3
3.94074 72684.5
3.95605 71608.7
3.97137 70839
3.98669 70315.3
4.002 70127.9
4.01732 70169
4.03263 70510.7
4.04795 71043.4
4.06327 71890.2
4.07858 72961.5
4.0939 74392.4
4.10922 76095.1
4.12453 78124.1
4.13985 80436.6
4.15517 82835
4.17048 85329.3
4.1858 87675.5
4.20111 89889.7
4.21643 91915.9
4.23175 93635.8
4.24706 95139.5
4.26238 96295.3
4.2777 97351.1
4.29301 98102.6
4.30833 98620.9
4.32365 98881.7
4.33896 98813
4.35428 98371.2
4.36959 97403.8
4.38491 95937.3
4.40023 93910
4.41554 91279.6
4.43086 88145.4
4.44618 84628.1
4.46149 80750.8
4.47681 76913
4.49213 73152.7
4.50744 69719
4.52276 66635.3
4.53807 63909.3
4.55339 61682.3
4.56871 59793.3
4.58402 58259.6
4.59934 57018.5
4.61466 56072.1
4.62997 55413.5
4.64529 54975.5
4.6606 54787
4.67592 54797.1
4.69124 54994.3
4.70655 55389.6
4.72187 55880.5
4.73719 56490.8
4.7525 57195
4.76782 57930.4
4.78314 58714.9
4.79845 59436.4
4.81377 60157.8
4.82908 60823.4
4.8444 61477.4
4.85972 62124.9
4.87503 62806.2
4.89035 63493.3
4.90567 64234.7
4.92098 65087.4
4.9363 66092.1
4.95162 67267
4.96693 68618.1
4.98225 70284.9
4.99756 72425
5.01288 74787.7
5.0282 77238.3
5.04351 79764.4
5.05883 81849.2
5.07415 83501.7
5.08946 84573.7
5.10478 84944.9
5.1201 84901.7
5.13541 84206.6
5.15073 83320.8
5.16604 82148.5
5.18136 81012.6
5.19668 80051.3
5.21199 79366.5
5.22731 78899.2
5.24263 78583.9
5.25794 78192.5
5.27326 77726
5.28858 77154.5
5.30389 76527.2
5.31921 75933.5
5.33452 75395
5.34984 74984.8
5.36516 74531.4
5.38047 73926.2
5.39579 72971.4
5.41111 71671.9
5.42642 69935.6
5.44174 67847
5.45706 65360.6
5.47237 62648.4
5.48769 59764.9
5.503 56982.7
5.51832 54589.3
5.53364 52574.9
5.54895 51096.6
5.56427 50093
5.57959 49410.6
5.5949 49044.1
5.61022 48766.3
5.62553 48641.1
5.64085 48466.3
5.65617 48322.2
5.67148 48160.2
5.6868 48017.1
5.70212 47843.7
5.71743 47660.9
5.73275 47535.4
5.74807 47480.9
5.76338 47505.9
5.7787 47650.6
5.79401 47930.4
5.80933 48346.8
5.82465 48867.3
5.83996 49520.4
5.85528 50251.1
5.8706 51082.7
5.88591 51930
5.90123 52748.4
5.91655 53505.5
5.93186 54183.5
5.94718 54670.2
5.96249 54949.8
5.97781 55055.5
5.99313 54930.2
6.00844 54640.3
6.02376 54128.3
6.03908 53533.3
6.05439 52817.8
6.06971 52099.4
6.08503 51390.4
6.10034 50756.1
6.11566 50222.2
6.13097 49794.9
6.14629 49440.3
6.16161 49187.3
6.17692 49025.6
6.19224 49002.3
6.20756 49025.8
6.22287 49196.7
6.23819 49471.4
6.25351 49836.1
6.26882 50188.2
6.28414 50490.5
6.29945 50709
6.31477 50816.1
6.33009 50786.5
6.3454 50619.7
6.36072 50325
6.37604 49980.9
6.39135 49613.5
6.40667 49293
6.42199 49054.2
6.4373 48951.9
6.45262 48958.5
6.46793 49076.8
6.48325 49287
6.49857 49596
6.51388 49968.1
6.5292 50375.6
6.54452 50816.9
6.55983 51271.2
6.57515 51784.6
6.59046 52332.5
6.60578 52938.5
6.6211 53575.4
6.63641 54201.2
6.65173 54754.9
6.66705 55226.7
6.68236 55629.8
6.69768 55988
6.713 56270.9
6.72831 56438.6
6.74363 56490.3
6.75894 56429.7
6.77426 56256.4
6.78958 56037.8
6.80489 55768.7
6.82021 55443.7
6.83553 55058.1
6.85084 54605
6.86616 54111.9
6.88148 53616.7
6.89679 53118.2
6.91211 52620.5
6.92742 52125.5
6.94274 51689.7
6.95806 51258.1
6.97337 50844.9
6.98869 50468.7
7.00401 50126.5
7.01932 49836.2
7.03464 49563.5
7.04996 49369.6
7.06527 49221.1
7.08059 49106
7.0959 48978.5
7.11122 48870.7
7.12654 48783.3
7.14185 48738.5
7.15717 48703.3
7.17249 48663.3
7.1878 48629.8
7.20312 48644.3
7.21844 48720.7
7.23375 48827.9
7.24907 48946.4
7.26438 49096.2
7.2797 49254.9
7.29502 49407
7.31033 49503.4
7.32565 49594.2
7.34097 49635.8
7.35628 49653.7
7.3716 49593.3
7.38692 49503.8
7.40223 49349.2
7.41755 49198.7
7.43286 49016.2
7.44818 48773.6
7.4635 48502.9
7.47881 48225.9
7.49413 47964.3
7.50945 47722.3
7.52476 47479.6
7.54008 47194.5
7.55539 46878.5
7.57071 46579.8
7.58603 46248.8
7.60134 45905.6
7.61666 45510.9
7.63198 45149.8
7.64729 44813.6
7.66261 44521.8
7.67793 44321.3
7.69324 44214.9
7.70856 44213.7
7.72387 44276.5
7.73919 44438.5
7.75451 44646.1
7.76982 44912.2
7.78514 45147
7.80046 45375.7
7.81577 45513.6
7.83109 45521.9
7.84641 45410.7
7.86172 45149.8
7.87704 44799
7.89235 44339.8
7.90767 43892.7
7.92299 43478.6
7.9383 43158.3
7.95362 42927.6
7.96894 42777.6
7.98425 42674.6
7.99957 42605
8.01489 42554.6
8.0302 42499.1
8.04552 42449.3
8.06083 42407.5
8.07615 42358.5
8.09147 42327.2
8.10678 42311.1
8.1221 42286.8
8.13742 42287.7
8.15273 42281.7
8.16805 42284.2
8.18337 42294
8.19868 42328.1
8.214 42353.6
8.22931 42372.6
8.24463 42367.3
8.25995 42304.7
8.27526 42189.8
8.29058 42034.2
8.3059 41888.7
8.32121 41728.1
8.33653 41554.3
8.35185 41368.8
8.36716 41182.8
8.38248 41041.4
8.39779 40944.1
8.41311 40876.9
8.42843 40820.8
8.44374 40828.8
8.45906 40852.6
8.47438 40918.4
8.48969 41012
8.50501 41135.3
8.52032 41283.9
8.53564 41449.9
8.55096 41645.5
8.56627 41825.3
8.58159 42008.7
8.59691 42194.1
8.61222 42387
8.62754 42560.4
8.64286 42728.8
8.65817 42896.4
8.67349 43045.1
8.6888 43168.2
8.70412 43306.4
8.71944 43534.7
8.73475 43827.8
8.75007 44150.5
8.76539 44526.7
8.7807 44941.8
8.79602 45310.6
8.81134 45638.1
8.82665 45853.3
8.84197 45938
8.85728 45876.8
8.8726 45721
8.88792 45534.5
8.90323 45385.1
8.91855 45344.9
8.93387 45412.7
8.94918 45608.7
8.9645 45857.1
8.97982 46117
8.99513 46293.7
9.01045 46398.6
9.02576 46306.3
9.04108 46051.8
9.0564 45616.1
9.07171 45069.3
9.08703 44457
9.10235 43833.2
9.11766 43217.8
9.13298 42661.7
9.1483 42197.7
9.16361 41823
9.17893 41548.6
9.19424 41322.9
9.20956 41125.1
9.22488 40927.8
9.24019 40751
9.25551 40559.8
9.27083 40369.6
9.28614 40168.8
9.30146 39983.6
9.31678 39762.9
9.33209 39545.5
9.34741 39350.3
9.36272 39169.3
9.37804 38998.5
9.39336 38857.9
9.40867 38733
9.42399 38654
9.43931 38641.3
9.45462 38660.6
9.46994 38703
9.48525 38774.9
9.50057 38911.6
9.51589 39090.3
9.5312 39282.9
9.54652 39453.8
9.56184 39578.8
9.57715 39601
9.59247 39548.6
9.60779 39440.8
9.6231 39283.5
9.63842 39111.1
9.65373 38924.4
9.66905 38764.4
9.68437 38629.2
9.69968 38547.6
9.715 38504.8
9.73032 38491.3
9.74563 38496
9.76095 38523.6
9.77627 38578.4
9.79158 38649.6
9.8069 38707.3
9.82221 38753.1
9.83753 38794.7
9.85285 38824.2
9.86816 38851.1
9.88348 38864.1
9.8988 38895.9
9.91411 38916.9
9.92943 38991.2
9.94475 39096.1
9.96006 39228.9
9.97538 39369
9.99069 39520.1
10.006 39659.5
10.0213 39812.9
10.0366 39957.8
10.052 40124.9
10.0673 40304.3
10.0826 40477.5
10.0979 40676
10.1132 40856.5
10.1285 41114.1
10.1439 41388.6
10.1592 41687
10.1745 41871.8
10.1898 41982.5
10.2051 42006.1
10.2204 41981.4
10.2358 41925.7
10.2511 41883.4
10.2664 41845.3
10.2817 41875.1
10.297 41974.6
10.3123 42157.2
10.3277 42343.9
10.343 42471.6
10.3583 42512.3
10.3736 42459.9
10.3889 42318
10.4042 42102.4
10.4196 41840.6
10.4349 41519.4
10.4502 41198
10.4655 40959.4
10.4808 40765.4
10.4961 40633.3
10.5115 40528.8
10.5268 40476
10.5421 40460.5
10.5574 40492.3
10.5727 40538.4
10.588 40585.9
10.6033 40618
10.6187 40638.4
10.634 40596.7
10.6493 40517.2
10.6646 40356.6
10.6799 40143.1
10.6952 39927
10.7106 39735.3
10.7259 39547.7
10.7412 39382.5
10.7565 39292.1
10.7718 39259.8
10.7871 39245.9
10.8025 39234.8
10.8178 39272.8
10.8331 39256.1
10.8484 39189.1
10.8637 39048
10.879 38865.9
10.8944 38643.2
10.9097 38385.5
10.925 38146.2
10.9403 37900.5
10.9556 37681.1
10.9709 37506.9
10.9863 37358.3
11.0016 37221.9
11.0169 37069.7
11.0322 36920.7
11.0475 36759.7
11.0628 36612.4
11.0782 36472.2
11.0935 36307.8
11.1088 36147
11.1241 36024
11.1394 35922.1
11.1547 35851.2
11.1701 35764.9
11.1854 35693
11.2007 35629.9
11.216 35561.3
11.2313 35520.5
11.2466 35460.2
11.262 35409.1
11.2773 35370.8
11.2926 35350.9
11.3079 35341.8
11.3232 35340.8
11.3385 35341.1
11.3538 35321.8
11.3692 35285.7
11.3845 35259.3
11.3998 35230.6
11.4151 35201.9
11.4304 35189.6
11.4457 35181.7
11.4611 35186.9
11.4764 35189.9
11.4917 35213.4
11.507 35241.7
11.5223 35277.5
11.5376 35313.1
11.553 35353
11.5683 35365.7
11.5836 35354.5
11.5989 35330.8
11.6142 35273.8
11.6295 35200.6
11.6449 35108.2
11.6602 35007.4
11.6755 34919.9
11.6908 34834.9
11.7061 34779.1
11.7214 34732
11.7368 34714.8
11.7521 34707.8
11.7674 34742.2
11.7827 34772.5
11.798 34794.2
11.8133 34754.9
11.8287 34707.8
11.844 34674.2
11.8593 34603
11.8746 34520.6
11.8899 34455.9
11.9052 34388.8
11.9206 34345.3
11.9359 34334.3
11.9512 34343.6
11.9665 34340.6
11.9818 34342.3
11.9971 34329.4
12.0125 34307
12.0278 34256.5
12.0431 34201.8
12.0584 34171.2
12.0737 34133.7
12.089 34062.3
12.1044 34012.5
12.1197 33973.7
12.135 33961.8
12.1503 33966
12.1656 33926.6
12.1809 33885.7
12.1962 33861.7
12.2116 33832.6
12.2269 33815.1
12.2422 33810.7
12.2575 33831
12.2728 33867.7
12.2881 33900.6
12.3035 33923.5
12.3188 33953.3
12.3341 33950.2
12.3494 33953.6
12.3647 33943.5
12.38 33943
12.3954 33946.4
12.4107 33966
12.426 33997.7
12.4413 34016.5
12.4566 34035.1
12.4719 34048.5
12.4873 34060.6
12.5026 34049.3
12.5179 34029.8
12.5332 34010.1
12.5485 34012.7
12.5638 34028.1
12.5792 34045.9
12.5945 34059.7
12.6098 34054
12.6251 34086.2
12.6404 34101.1
12.6557 34118.3
12.6711 34133.8
12.6864 34146.9
12.7017 34127.9
12.717 34101.8
12.7323 34095.8
12.7476 34104.3
12.763 34119.7
12.7783 34156.4
12.7936 34225.7
12.8089 34303.1
12.8242 34350.5
12.8395 34373.6
12.8549 34379.5
12.8702 34325.2
12.8855 34235.2
12.9008 34175
12.9161 34114.7
12.9314 34031.3
12.9467 33936.2
12.9621 33881.8
12.9774 33844.2
12.9927 33843.1
13.008 33863.4
13.0233 33873.3
13.0386 33862.1
13.054 33868.2
13.0693 33867.3
13.0846 33874.1
13.0999 33897.5
13.1152 33901.1
13.1305 33877.2
13.1459 33854.1
13.1612 33833.9
13.1765 33800.3
13.1918 33785.6
13.2071 33771
13.2224 33770.8
13.2378 33775.3
13.2531 33784.6
13.2684 33814.4
13.2837 33787.9
13.299 33790.8
13.3143 33804.7
13.3297 33837.7
13.345 33878.2
13.3603 33931.8
13.3756 34001.8
13.3909 34104.5
13.4062 34240.4
13.4216 34396.3
13.4369 34548.7
13.4522 34707.2
13.4675 34850.6
13.4828 34970.6
13.4981 35059.4
13.5135 35120
13.5288 35163.2
13.5441 35212.2
13.5594 35278.1
13.5747 35332.9
13.59 35362
13.6054 35328.9
13.6207 35244.6
13.636 35103.5
13.6513 34918
13.6666 34739.6
13.6819 34551.2
13.6973 34361.2
13.7126 34197.1
13.7279 34074.8
13.7432 33970.3
13.7585 33862.7
13.7738 33770.3
13.7891 33685.2
13.8045 33600.1
13.8198 33534.1
13.8351 33508.7
13.8504 33494.6
13.8657 33478.2
13.881 33465.6
13.8964 33464.8
13.9117 33485.9
13.927 33506
13.9423 33525.9
13.9576 33550.5
13.9729 33527.3
13.9883 33494.8
14.0036 33438
14.0189 33378.3
14.0342 33271.6
14.0495 33153.6
14.0648 33034.1
14.0802 32891.3
14.0955 32767.9
14.1108 32649.1
14.1261 32514.6
14.1414 32403.2
14.1567 32318.3
14.1721 32276.2
14.1874 32251.9
14.2027 32201
14.218 32157
14.2333 32140.1
14.2486 32112.1
14.264 32094.5
14.2793 32087.9
14.2946 32037
14.3099 31981.8
14.3252 31917.6
14.3405 31856.8
14.3559 31837.2
14.3712 31824.4
14.3865 31831.7
14.4018 31839.9
14.4171 31845.3
14.4324 31795
14.4478 31731
14.4631 31679.2
14.4784 31650.6
14.4937 31645.4
14.509 31666.5
14.5243 31682.7
14.5397 31674.4
14.555 31674.1
14.5703 31677.8
14.5856 31666
14.6009 31655
14.6162 31651.2
14.6315 31620.7
14.6469 31573.8
14.6622 31561.1
14.6775 31536.4
14.6928 31504.2
14.7081 31438.9
14.7234 31401.2
14.7388 31358.3
14.7541 31305.5
14.7694 31267.9
14.7847 31236.9
14.8 31230.1
14.8153 31190.4
14.8307 31138
14.846 31095.1
14.8613 31068.6
14.8766 31019
14.8919 30973.7
14.9072 30941.3
14.9226 30916.3
14.9379 30866.5
14.9532 30845.7
14.9685 30870
14.9838 30874.2
14.9991 30866.2
15.0145 30840.1
15.0298 30832.6
15.0451 30846.5
15.0604 30863.3
15.0757 30882.2
15.091 30877
15.1064 30857.1
15.1217 30837.5
15.137 30807.7
15.1523 30810.7
15.1676 30848.5
15.1829 30867.4
15.1983 30894.2
15.2136 30928.6
15.2289 30950.7
15.2442 30985.2
15.2595 31024.2
15.2748 31055.3
15.2902 31070.3
15.3055 31101.8
15.3208 31161.1
15.3361 31210.4
15.3514 31240.2
15.3667 31255
15.382 31253.3
15.3974 31262.4
15.4127 31264.8
15.428 31213
15.4433 31154.6
15.4586 31129.5
15.4739 31088.4
15.4893 31052.1
15.5046 31013.5
15.5199 30969.9
15.5352 30938.7
15.5505 30914.6
15.5658 30892.7
15.5812 30879
15.5965 30887.7
15.6118 30863.1
15.6271 30836.6
15.6424 30826.4
15.6577 30820.8
15.6731 30806.1
15.6884 30800.5
15.7037 30784.8
15.719 30763.2
15.7343 30722.5
15.7496 30681.3
15.765 30650.4
15.7803 30649.4
15.7956 30619.8
15.8109 30588.9
15.8262 30548.5
15.8415 30471.4
15.8569 30406.4
15.8722 30357.9
15.8875 30323.5
15.9028 30282.1
15.9181 30267.1
15.9334 30222.5
15.9488 30161.9
15.9641 30103.9
15.9794 30057.7
15.9947 30014.3
16.01 29978.1
16.0253 30010
16.0407 29998.8
16.056 29974.3
16.0713 29956.6
16.0866 29948.6
16.1019 29964.1
16.1172 29967
16.1326 29967.2
16.1479 29959.1
16.1632 29953.2
16.1785 29961
16.1938 29978.1
16.2091 29981.2
16.2244 29958.9
16.2398 29913.7
16.2551 29923
16.2704 29955.9
16.2857 29956.4
16.301 29947.5
16.3163 29918.8
16.3317 29904.6
16.347 29910.9
16.3623 29933.6
16.3776 29946.5
16.3929 29902.7
16.4082 29873.7
16.4236 29868.9
16.4389 29850.1
16.4542 29817.2
16.4695 29775.8
16.4848 29731.4
16.5001 29702.7
16.5155 29694.3
16.5308 29678.4
16.5461 29644.5
16.5614 29618.3
16.5767 29580.1
16.592 29515.2
16.6074 29418.4
16.6227 29398.5
16.638 29411.7
16.6533 29402.5
16.6686 29350.1
16.6839 29287
16.6993 29241
16.7146 29185.9
16.7299 29157
16.7452 29156.1
16.7605 29144.9
16.7758 29103.8
16.7912 29079.1
16.8065 29076.7
16.8218 29059.9
16.8371 29038
16.8524 29016.1
16.8677 29045.2
16.8831 29061.4
16.8984 29045.8
16.9137 28998.6
16.929 28965.2
16.9443 28962
16.9596 28952.6
16.9749 28941.7
16.9903 28923.2
17.0056 28882.4
17.0209 28844.8
17.0362 28829.4
17.0515 28803.5
17.0668 28756.6
17.0822 28762.5
17.0975 28769.8
17.1128 28725.9
17.1281 28673.5
17.1434 28648.8
17.1587 28641.6
17.1741 28622.5
17.1894 28581.1
17.2047 28570.6
17.22 28544.1
17.2353 28517.4
17.2506 28523.8
17.266 28514.8
17.2813 28486.5
17.2966 28486.8
17.3119 28469.1
17.3272 28464.7
17.3425 28464.3
17.3579 28443.9
17.3732 28438.9
17.3885 28450.3
17.4038 28468.8
17.4191 28456.2
17.4344 28396.3
17.4498 28337.5
17.4651 28334.4
17.4804 28338.6
17.4957 28325.7
17.511 28292.7
17.5263 28316.4
17.5417 28317.1
17.557 28336
17.5723 28345.2
17.5876 28340
17.6029 28369
17.6182 28371.7
17.6336 28355.7
17.6489 28360.2
17.6642 28398.2
17.6795 28409.7
17.6948 28398.2
17.7101 28384.2
17.7255 28380.4
17.7408 28393.6
17.7561 28374.7
17.7714 28356.5
17.7867 28355.4
17.802 28330.6
17.8173 28306.5
17.8327 28289.7
17.848 28274.4
17.8633 28259.7
17.8786 28240.7
17.8939 28230.4
17.9092 28233.5
17.9246 28225.4
17.9399 28214.5
17.9552 28204.3
17.9705 28207.3
17.9858 28211.5
18.0011 28221.6
18.0165 28235.8
18.0318 28218.7
18.0471 28191.4
18.0624 28172
18.0777 28158.1
18.093 28145.6
18.1084 28145
18.1237 28135.6
18.139 28128.3
18.1543 28100.9
18.1696 28079.3
18.1849 28056.9
18.2003 28041.7
18.2156 28046
18.2309 28045
18.2462 28033.3
18.2615 28049.6
18.2768 28057.7
18.2922 28049.2
18.3075 28071
18.3228 28104.7
18.3381 28102.4
18.3534 28118.1
18.3687 28167.7
18.3841 28225.9
18.3994 28268
18.4147 28281.6
18.43 28295.4
18.4453 28252
18.4606 28175.2
18.476 28150.5
18.4913 28128.3
18.5066 28074.9
18.5219 28045.3
18.5372 28017.6
18.5525 28039.7
18.5679 28039.4
18.5832 27972.7
18.5985 27951.2
18.6138 27935.5
18.6291 27894.9
18.6444 27859.7
18.6597 27856.9
18.6751 27842.5
18.6904 27824.9
18.7057 27808.9
18.721 27772.4
18.7363 27751
18.7516 27768.3
18.767 27793.7
18.7823 27751.4
18.7976 27651.9
18.8129 27618.4
18.8282 27636.9
18.8435 27634.2
18.8589 27638.3
18.8742 27617.9
18.8895 27563.4
18.9048 27525.7
18.9201 27489
18.9354 27472.7
18.9508 27447.7
18.9661 27428.1
18.9814 27418.5
18.9967 27391.4
19.012 27336
19.0273 27322.6
19.0427 27361.9
19.058 27358.9
19.0733 27327.5
19.0886 27275.4
19.1039 27257.2
19.1192 27253.9
19.1346 27254.8
19.1499 27248.8
19.1652 27251.6
19.1805 27214.4
19.1958 27207.1
19.2111 27204.3
19.2265 27193.8
19.2418 27202.3
19.2571 27197
19.2724 27172.2
19.2877 27149
19.303 27107.3
19.3184 27073.2
19.3337 27012.8
19.349 27022.8
19.3643 27018
19.3796 26996.2
19.3949 26947
19.4102 26940.7
19.4256 26931.5
19.4409 26876.1
19.4562 26826.2
19.4715 26829.9
19.4868 26822.9
19.5021 26800.1
19.5175 26801.7
19.5328 26801.7
19.5481 26798.1
19.5634 26803.9
19.5787 26767.8
19.594 26710
19.6094 26699.4
19.6247 26675
19.64 26632.6
19.6553 26631.9
19.6706 26617.4
19.6859 26606.9
19.7013 26595.2
19.7166 26591.3
19.7319 26625.2
19.7472 26628.8
19.7625 26614.4
19.7778 26611.4
19.7932 26571.2
19.8085 26534.5
19.8238 26563.5
19.8391 26558.1
19.8544 26508.7
19.8697 26490.1
19.8851 26532.8
19.9004 26543.8
19.9157 26488
19.931 26460.2
19.9463 26494.6
19.9616 26491.6
19.977 26445.5
19.9923 26455.9
20.0076 26467.1
20.0229 26473.1
20.0382 26447.2
20.0535 26405.4
20.0689 26393.8
20.0842 26358
20.0995 26338
20.1148 26328.4
20.1301 26313.7
20.1454 26301.2
20.1608 26339.6
20.1761 26363.1
20.1914 26350.6
20.2067 26306.6
20.222 26273.5
20.2373 26309.5
20.2526 26337.7
20.268 26323
20.2833 26292.1
20.2986 26293.9
20.3139 26304.9
20.3292 26289.4
20.3445 26263
20.3599 26293.5
20.3752 26301.5
20.3905 26304.9
20.4058 26310.9
20.4211 26293.8
20.4364 26279.8
20.4518 26314.9
20.4671 26312.2
20.4824 26308.1
20.4977 26271.8
20.513 26260.5
20.5283 26314.8
20.5437 26308.1
20.559 26287
20.5743 26259.5
20.5896 26246.1
20.6049 26260.5
20.6202 26243.8
20.6356 26229
20.6509 26272.1
20.6662 26267.1
20.6815 26245.7
20.6968 26196.9
20.7121 26126.2
20.7275 26112.8
20.7428 26143.4
20.7581 26134.3
20.7734 26143.4
20.7887 26165.7
20.804 26137.1
20.8194 26133.7
20.8347 26146.6
20.85 26162.7
20.8653 26114.7
20.8806 26087.4
20.8959 26080.5
20.9113 26079
20.9266 26098.7
20.9419 26121.9
20.9572 26100.2
20.9725 26068.5
20.9878 26059.6
21.0031 26048.4
21.0185 26090
21.0338 26124.3
21.0491 26111
21.0644 26105.6
21.0797 26091.9
21.095 26097.7
21.1104 26089.5
21.1257 26074
21.141 26059.1
21.1563 26060.1
21.1716 26067.6
21.1869 26067.1
21.2023 26067
21.2176 26022.1
21.2329 25998
21.2482 26045.9
21.2635 26071.2
21.2788 26036.5
21.2942 25997.2
21.3095 25983.4
21.3248 25992.9
21.3401 26019
21.3554 26038.3
21.3707 26005.7
21.3861 26015.6
21.4014 26012.3
21.4167 26011.1
21.432 26036
21.4473 26032.2
21.4626 25997.1
21.478 25972.2
21.4933 25949
21.5086 25963.3
21.5239 26009.2
21.5392 26013.1
21.5545 26018.3
21.5699 26017.3
21.5852 26012
21.6005 26020.7
21.6158 26003.7
21.6311 25959.2
21.6464 25938.1
21.6618 25923.8
21.6771 25961.9
21.6924 25962.7
21.7077 25958.2
21.723 26001.6
21.7383 25986.7
21.7537 25990.8
21.769 25986.5
21.7843 25988
21.7996 25975.5
21.8149 25995.6
21.8302 26008.9
21.8455 25987.6
21.8609 25952
21.8762 25955.7
21.8915 25960.3
21.9068 25950.6
21.9221 26007.5
21.9374 26003.9
21.9528 26003.6
21.9681 25990.2
21.9834 25996.5
21.9987 25976.8
22.014 25942.5
22.0293 26012.7
22.0447 26091.5
22.06 26095.3
22.0753 26102
22.0906 26091.6
22.1059 26104.2
22.1212 26165.3
22.1366 26155.1
22.1519 26156.9
22.1672 26148.6
22.1825 26155.6
22.1978 26196.6
22.2131 26218.5
22.2285 26208
22.2438 26145.2
22.2591 26133.2
22.2744 26130.8
22.2897 26147.3
22.305 26151.6
22.3204 26191.8
22.3357 26201.2
22.351 26232.3
22.3663 26220.2
22.3816 26254.9
22.3969 26256.6
22.4123 26248.2
22.4276 26267.7
22.4429 26261.1
22.4582 26241.3
22.4735 26253.7
22.4888 26245.4
22.5042 26223.8
22.5195 26246.5
22.5348 26254
22.5501 26277.3
22.5654 26307.6
22.5807 26245.3
22.596 26237.6
22.6114 26292
22.6267 26240.3
22.642 26233.3
22.6573 26284.7
22.6726 26306.6
22.6879 26299.5
22.7033 26270.4
22.7186 26243.9
22.7339 26221.5
22.7492 26196.5
22.7645 26217.3
22.7798 26227.5
22.7952 26236.7
22.8105 26268.8
22.8258 26289.1
22.8411 26253.3
22.8564 26298.7
22.8717 26311.1
22.8871 26293.4
22.9024 26349.9
22.9177 26355.2
22.933 26329.6
22.9483 26311.2
22.9636 26379.1
22.979 26378.7
22.9943 26371
