# xPDFsuite Configuration #
[PDF]
wavelength = 0.1
dataformat = QA
inputfile = B3_Bronze-3nm_ss_01.chi
backgroundfile = B3_Li-bkg_ss.chi
mode = xray
bgscale = 0.98705
composition = Ti O2
outputtype = iq
qmaxinst = 23.0
qmin = 0.1
qmax = 23.0
rmax = 30.0
rmin = 0.0
rstep = 0.01
rpoly = 0.9

[Misc]
inputdir = E:/Beamtime/PETRA-III_September-2019/BeamData/processed/Run1/B3/chi/chi_w_sigmas/chi_scaled
savedir = E:/Beamtime/PETRA-III_September-2019/BeamData/processed/Run1/B3
backgroundfilefull = E:/Beamtime/PETRA-III_September-2019/BeamData/processed/Run1/B3/chi/chi_w_sigmas/chi_scaled/B3_Li-bkg_ss.chi

#### start data
#S 1
#L Q($\AA^{-1}$)  intensity(a.u.)
0.111649 0
0.126965 0
0.142282 0
0.157598 0
0.172914 0
0.188231 0
0.203547 0
0.218864 0
0.23418 0
0.249496 0
0.264813 0
0.280129 0
0.295445 0
0.310762 0
0.326078 0
0.341394 0
0.356711 0
0.372027 0
0.387343 0
0.40266 0
0.417976 0
0.433292 0
0.448609 0
0.463925 0
0.479241 0
0.494558 0
0.509874 0
0.525191 0
0.540507 0
0.555823 0
0.57114 0
0.586456 0
0.601772 0
0.617089 0
0.632405 0
0.647721 0
0.663038 0
0.678354 0
0.69367 0
0.708987 0
0.724303 0
0.739619 0
0.754936 0
0.770252 0
0.785568 0
0.800885 0
0.816201 0
0.831518 0
0.846834 0
0.86215 1.30902
0.877467 93983.2
0.892783 94457.2
0.908099 94519
0.923416 95392.2
0.938732 96854.4
0.954048 98803.4
0.969365 100645
0.984681 101989
0.999997 102517
1.01531 102093
1.03063 100159
1.04595 97205.2
1.06126 93011.3
1.07658 87626.7
1.0919 81818.1
1.10721 74787.4
1.12253 68144.8
1.13784 61073.2
1.15316 54430
1.16848 48396
1.18379 42483.9
1.19911 37456.1
1.21443 32594.2
1.22974 28327.5
1.24506 24553
1.26038 21232
1.27569 18623.8
1.29101 16440.7
1.30632 14822.3
1.32164 13757.2
1.33696 13140.2
1.35227 12954.6
1.36759 13184.5
1.38291 13715.1
1.39822 14540.7
1.41354 15298.8
1.42886 16050.5
1.44417 16708.4
1.45949 17339.6
1.4748 18083.9
1.49012 19167.8
1.50544 20783.2
1.52075 22998.5
1.53607 26168.6
1.55139 30669.5
1.5667 36179.7
1.58202 43871
1.59733 52808.4
1.61265 63644.1
1.62797 76054
1.64328 89228.7
1.6586 104085
1.67392 118640
1.68923 133517
1.70455 147192
1.71987 159371
1.73518 170047
1.7505 178437
1.76581 185202
1.78113 189334
1.79645 191096
1.81176 190527
1.82708 187734
1.8424 182715
1.85771 176718
1.87303 169589
1.88835 162451
1.90366 155840
1.91898 149987
1.93429 145443
1.94961 142129
1.96493 140288
1.98024 139556
1.99556 139499
2.01088 139522
2.02619 138974
2.04151 137405
2.05683 134414
2.07214 130304
2.08746 125131
2.10277 119030
2.11809 112699
2.13341 105854
2.14872 99315.2
2.16404 93050.5
2.17936 87368
2.19467 82564.1
2.20999 78404.3
2.22531 75300.8
2.24062 72810.4
2.25594 71075.2
2.27125 69780.4
2.28657 68708.8
2.30189 67774.1
2.3172 66763.5
2.33252 65584.3
2.34784 64079.8
2.36315 62419.9
2.37847 60651.5
2.39379 58665.1
2.4091 57105
2.42442 55396
2.43973 54214.9
2.45505 53265.1
2.47037 52610.7
2.48568 52468.5
2.501 52546.9
2.51632 52941.2
2.53163 53281.8
2.54695 53784.3
2.56226 54355.6
2.57758 54980.9
2.5929 55373.6
2.60821 55649.9
2.62353 55650.9
2.63885 55419.2
2.65416 54949.5
2.66948 54302.3
2.6848 53515
2.70011 52697.3
2.71543 52043.1
2.73074 51556.5
2.74606 51334.1
2.76138 51380.6
2.77669 51777.6
2.79201 52555.4
2.80733 53726.5
2.82264 55502.4
2.83796 57900.8
2.85328 61080.3
2.86859 65220
2.88391 70120.7
2.89922 76214.9
2.91454 83051.9
2.92986 90751.3
2.94517 99001.1
2.96049 107396
2.97581 115984
2.99112 123768
3.00644 130822
3.02176 136324
3.03707 140131
3.05239 142152
3.0677 142271
3.08302 140538
3.09834 137219
3.11365 132757
3.12897 127559
3.14429 122242
3.1596 117177
3.17492 113111
3.19024 109919
3.20555 108105
3.22087 107438
3.23618 107668
3.2515 108488
3.26682 109493
3.28213 110322
3.29745 110561
3.31277 110137
3.32808 108811
3.3434 106574
3.35872 103791
3.37403 100279
3.38935 96632.6
3.40466 92735.6
3.41998 89006.8
3.4353 85585.1
3.45061 82462.5
3.46593 79950.1
3.48125 77761
3.49656 76104.5
3.51188 74843.4
3.52719 74127.6
3.54251 73968.3
3.55783 74163.8
3.57314 74687.6
3.58846 75478.2
3.60378 76486.4
3.61909 77680.3
3.63441 78917.9
3.64973 80104.5
3.66504 81104.5
3.68036 81914
3.69567 82453.1
3.71099 82697.7
3.72631 82769.1
3.74162 82662.9
3.75694 82656.1
3.77226 82639.1
3.78757 82811.6
3.80289 83304.1
3.81821 84095.2
3.83352 85239
3.84884 86759.2
3.86415 88492.7
3.87947 90335.8
3.89479 92059.7
3.9101 93529
3.92542 94601
3.94074 95208.1
3.95605 95201.6
3.97137 94721.7
3.98669 93635.4
4.002 92233.1
4.01732 90518
4.03263 88719.1
4.04795 87062.2
4.06327 85660.4
4.07858 84681.8
4.0939 84146.4
4.10922 84016.8
4.12453 84242.9
4.13985 84687.8
4.15517 85163.4
4.17048 85478.9
4.1858 85528.5
4.20111 85300.1
4.21643 84741.6
4.23175 83820.7
4.24706 82501.3
4.26238 80959.6
4.2777 79295.9
4.29301 77657.2
4.30833 76061.8
4.32365 74699.4
4.33896 73635.4
4.35428 72917.3
4.36959 72436.5
4.38491 72302.2
4.40023 72430.6
4.41554 72771.4
4.43086 73264
4.44618 73766.5
4.46149 74296.6
4.47681 74651.4
4.49213 74840.3
4.50744 74695.9
4.52276 74259.5
4.53807 73438.7
4.55339 72339.4
4.56871 70938.8
4.58402 69344.2
4.59934 67568.8
4.61466 65729.3
4.62997 63947.6
4.64529 62224.8
4.6606 60659.5
4.67592 59221.8
4.69124 58007.4
4.70655 56979.3
4.72187 56150.4
4.73719 55544.1
4.7525 55179.1
4.76782 55067.5
4.78314 55213.8
4.79845 55621
4.81377 56318.8
4.82908 57291.2
4.8444 58537.1
4.85972 60011
4.87503 61643.6
4.89035 63464
4.90567 65339.6
4.92098 67351
4.9363 69385.4
4.95162 71485.2
4.96693 73571.7
4.98225 75752.8
4.99756 78226.5
5.01288 80747.3
5.0282 83131.8
5.04351 85411.6
5.05883 87056.8
5.07415 88160.3
5.08946 88521.3
5.10478 88063.9
5.1201 87086.8
5.13541 85424.5
5.15073 83539.2
5.16604 81373.7
5.18136 79228.4
5.19668 77338.7
5.21199 75807.2
5.22731 74573.7
5.24263 73691.2
5.25794 73013.1
5.27326 72549.9
5.28858 72274.5
5.30389 72268.1
5.31921 72623.1
5.33452 73321.1
5.34984 74308.7
5.36516 75323.8
5.38047 76193.6
5.39579 76648.3
5.41111 76563.3
5.42642 75816.8
5.44174 74447
5.45706 72424.3
5.47237 69910.2
5.48769 66997.6
5.503 64008.5
5.51832 61191
5.53364 58566.4
5.54895 56379.2
5.56427 54526.8
5.57959 53056.3
5.5949 51911.1
5.61022 50912.4
5.62553 50092.7
5.64085 49284.8
5.65617 48609.3
5.67148 47965.1
5.6868 47469.5
5.70212 47014.1
5.71743 46660.4
5.73275 46403.5
5.74807 46277.5
5.76338 46324.8
5.7787 46550.2
5.79401 46955.9
5.80933 47631.4
5.82465 48405.8
5.83996 49305.7
5.85528 50253.5
5.8706 51295.6
5.88591 52344.4
5.90123 53331.9
5.91655 54208.2
5.93186 54964.2
5.94718 55601.3
5.96249 56056.2
5.97781 56377.7
5.99313 56478.2
6.00844 56403.7
6.02376 56144.1
6.03908 55805.8
6.05439 55477
6.06971 55173.4
6.08503 54924.9
6.10034 54718.9
6.11566 54593.3
6.13097 54491.6
6.14629 54433.5
6.16161 54435
6.17692 54506.2
6.19224 54602.1
6.20756 54711.2
6.22287 54870.2
6.23819 55067.8
6.25351 55264.2
6.26882 55389.8
6.28414 55395.8
6.29945 55231.5
6.31477 54891
6.33009 54383.2
6.3454 53730.4
6.36072 52963.4
6.37604 52099.5
6.39135 51243.6
6.40667 50465.9
6.42199 49815.7
6.4373 49300.2
6.45262 48931.2
6.46793 48685.7
6.48325 48540.8
6.49857 48451
6.51388 48408.9
6.5292 48380.9
6.54452 48380.2
6.55983 48351.4
6.57515 48359.2
6.59046 48380.6
6.60578 48482.6
6.6211 48584.9
6.63641 48759.3
6.65173 48917.7
6.66705 49158.7
6.68236 49438.1
6.69768 49803
6.713 50254.9
6.72831 50739.9
6.74363 51251.6
6.75894 51805.8
6.77426 52403.1
6.78958 53036.1
6.80489 53682.9
6.82021 54315.3
6.83553 54907.7
6.85084 55403.8
6.86616 55828.8
6.88148 56154.3
6.89679 56423.5
6.91211 56540.8
6.92742 56574.9
6.94274 56491.5
6.95806 56298.8
6.97337 56009.6
6.98869 55644.5
7.00401 55202.5
7.01932 54705.7
7.03464 54130.7
7.04996 53560.3
7.06527 52956.3
7.08059 52364.5
7.0959 51799.7
7.11122 51262.3
7.12654 50753.2
7.14185 50257.3
7.15717 49801.2
7.17249 49392.9
7.1878 49057.1
7.20312 48779.7
7.21844 48565.8
7.23375 48383.5
7.24907 48250.8
7.26438 48210.2
7.2797 48203.3
7.29502 48214.8
7.31033 48233.4
7.32565 48255.8
7.34097 48238.6
7.35628 48205.1
7.3716 48153.5
7.38692 48127.3
7.40223 48087.4
7.41755 48083.1
7.43286 48121.7
7.44818 48166.6
7.4635 48258.5
7.47881 48394.2
7.49413 48609.9
7.50945 48850.5
7.52476 49097.2
7.54008 49264.9
7.55539 49355.3
7.57071 49360.2
7.58603 49267.7
7.60134 49120.2
7.61666 48902
7.63198 48628
7.64729 48333.2
7.66261 48022.3
7.67793 47777.6
7.69324 47640.1
7.70856 47649.2
7.72387 47771.2
7.73919 47962.2
7.75451 48239.1
7.76982 48569.1
7.78514 48903.2
7.80046 49188.2
7.81577 49376.8
7.83109 49441.9
7.84641 49398
7.86172 49200.7
7.87704 48869.6
7.89235 48417.3
7.90767 47929.7
7.92299 47444.7
7.9383 46992.4
7.95362 46575.3
7.96894 46188.3
7.98425 45805.5
7.99957 45436.1
8.01489 45096.7
8.0302 44782.4
8.04552 44451.2
8.06083 44126
8.07615 43826.1
8.09147 43603.5
8.10678 43434.2
8.1221 43308
8.13742 43258.2
8.15273 43278.5
8.16805 43367.7
8.18337 43513.8
8.19868 43712.1
8.214 43943.4
8.22931 44201.9
8.24463 44467.7
8.25995 44712.5
8.27526 44920
8.29058 45088.2
8.3059 45230
8.32121 45341.8
8.33653 45419.3
8.35185 45414.3
8.36716 45323
8.38248 45203.1
8.39779 45053.2
8.41311 44855.3
8.42843 44623.9
8.44374 44396.7
8.45906 44171.3
8.47438 43940
8.48969 43714.2
8.50501 43504.3
8.52032 43313.2
8.53564 43144.5
8.55096 43005.8
8.56627 42850.4
8.58159 42711.7
8.59691 42560.7
8.61222 42462.7
8.62754 42379.9
8.64286 42324
8.65817 42281.5
8.67349 42279
8.6888 42325.3
8.70412 42418
8.71944 42648.2
8.73475 42998
8.75007 43491.7
8.76539 44110.7
8.7807 44818.1
8.79602 45526
8.81134 46226.4
8.82665 46826.7
8.84197 47316.4
8.85728 47640.1
8.8726 47862.4
8.88792 47992.5
8.90323 48078
8.91855 48202
8.93387 48374.6
8.94918 48633.1
8.9645 48871.5
8.97982 49090.9
8.99513 49220.9
9.01045 49247.3
9.02576 49075.9
9.04108 48712.4
9.0564 48202.4
9.07171 47571.9
9.08703 46881.3
9.10235 46152.3
9.11766 45471.3
9.13298 44854.6
9.1483 44298.4
9.16361 43805.7
9.17893 43400.4
9.19424 43034.1
9.20956 42696.2
9.22488 42387.7
9.24019 42094.1
9.25551 41843.1
9.27083 41606.8
9.28614 41359.1
9.30146 41131.1
9.31678 40914.6
9.33209 40710.7
9.34741 40539.4
9.36272 40424.5
9.37804 40320.5
9.39336 40260.8
9.40867 40218.9
9.42399 40221
9.43931 40262.3
9.45462 40333.5
9.46994 40472
9.48525 40629.8
9.50057 40825.1
9.51589 41021
9.5312 41202.4
9.54652 41333.4
9.56184 41405.4
9.57715 41366.3
9.59247 41207.5
9.60779 40984.2
9.6231 40719.7
9.63842 40409.9
9.65373 40087.7
9.66905 39794.3
9.68437 39551.8
9.69968 39366.6
9.715 39219.2
9.73032 39101.9
9.74563 39030.3
9.76095 38997.8
9.77627 39024.5
9.79158 39053.2
9.8069 39110
9.82221 39181.8
9.83753 39245.7
9.85285 39281.9
9.86816 39340.8
9.88348 39428
9.8988 39533.2
9.91411 39636.8
9.92943 39778.2
9.94475 39943.3
9.96006 40158.5
9.97538 40376.1
9.99069 40598.9
10.006 40826.4
10.0213 41085.2
10.0366 41318.4
10.052 41552.3
10.0673 41796.8
10.0826 42047.7
10.0979 42313.6
10.1132 42576.8
10.1285 42867.5
10.1439 43161.5
10.1592 43471.4
10.1745 43686.3
10.1898 43783.4
10.2051 43800.7
10.2204 43770.6
10.2358 43720.1
10.2511 43661.9
10.2664 43641.5
10.2817 43698.3
10.297 43835.4
10.3123 44068.4
10.3277 44298.9
10.343 44498.4
10.3583 44646
10.3736 44695
10.3889 44651.8
10.4042 44555
10.4196 44396.3
10.4349 44213.1
10.4502 43989.5
10.4655 43820.4
10.4808 43680.2
10.4961 43586.3
10.5115 43508.5
10.5268 43492.2
10.5421 43537.5
10.5574 43615
10.5727 43683.4
10.588 43745
10.6033 43792.4
10.6187 43821.2
10.634 43822.5
10.6493 43753.5
10.6646 43637.1
10.6799 43455.8
10.6952 43281.5
10.7106 43120.8
10.7259 42978.3
10.7412 42852.4
10.7565 42777.4
10.7718 42759.4
10.7871 42758.4
10.8025 42743.2
10.8178 42747.6
10.8331 42729.8
10.8484 42668.4
10.8637 42545.1
10.879 42378.2
10.8944 42169.4
10.9097 41903.5
10.925 41645.6
10.9403 41377.5
10.9556 41133.4
10.9709 40902.4
10.9863 40702
11.0016 40503.1
11.0169 40327.4
11.0322 40146.9
11.0475 39966.9
11.0628 39763.9
11.0782 39547.4
11.0935 39328.6
11.1088 39117.3
11.1241 38931.8
11.1394 38753
11.1547 38576.7
11.1701 38397.3
11.1854 38233.4
11.2007 38059.5
11.216 37889.5
11.2313 37768.5
11.2466 37643.6
11.262 37519.1
11.2773 37405.5
11.2926 37347.3
11.3079 37302.7
11.3232 37266.4
11.3385 37221.5
11.3538 37169.6
11.3692 37138.1
11.3845 37118.1
11.3998 37126.4
11.4151 37123.4
11.4304 37140.6
11.4457 37152.6
11.4611 37188.6
11.4764 37226.5
11.4917 37273.5
11.507 37321.7
11.5223 37392.3
11.5376 37425.4
11.553 37457.5
11.5683 37481.8
11.5836 37491.8
11.5989 37481.6
11.6142 37457.3
11.6295 37393.2
11.6449 37308.4
11.6602 37225.1
11.6755 37154.1
11.6908 37081.5
11.7061 37030
11.7214 37000.3
11.7368 36990.4
11.7521 36990.8
11.7674 37020.2
11.7827 37042.2
11.798 37078.5
11.8133 37063.9
11.8287 37031.1
11.844 37002.1
11.8593 36981.3
11.8746 36963
11.8899 36960.6
11.9052 36940
11.9206 36932.2
11.9359 36945.9
11.9512 36974
11.9665 36989.5
11.9818 37031.1
11.9971 37064.2
12.0125 37094.5
12.0278 37117.5
12.0431 37150
12.0584 37168.8
12.0737 37181.1
12.089 37166.8
12.1044 37163
12.1197 37121.2
12.135 37094.4
12.1503 37071.6
12.1656 37052.1
12.1809 37046.9
12.1962 37031
12.2116 37013.8
12.2269 37000.7
12.2422 37008.7
12.2575 37015
12.2728 36996.1
12.2881 36995.5
12.3035 37008.1
12.3188 37017.5
12.3341 36987.2
12.3494 36949.7
12.3647 36930.1
12.38 36923.5
12.3954 36911.9
12.4107 36906.2
12.426 36897.3
12.4413 36859.2
12.4566 36836.2
12.4719 36829.4
12.4873 36793.7
12.5026 36728.2
12.5179 36674.7
12.5332 36611.7
12.5485 36572.9
12.5638 36523.3
12.5792 36492.8
12.5945 36460.8
12.6098 36427.3
12.6251 36418.2
12.6404 36413.9
12.6557 36398.5
12.6711 36375.2
12.6864 36338.5
12.7017 36312.5
12.717 36301.6
12.7323 36298
12.7476 36315.1
12.763 36351.5
12.7783 36402.8
12.7936 36476.9
12.8089 36547.8
12.8242 36630.8
12.8395 36696.7
12.8549 36760.6
12.8702 36731.2
12.8855 36673.4
12.9008 36612.9
12.9161 36548.1
12.9314 36470.7
12.9467 36390.6
12.9621 36332
12.9774 36269.9
12.9927 36231.6
13.008 36219.4
13.0233 36211.6
13.0386 36182.5
13.054 36158.2
13.0693 36148.6
13.0846 36125.6
13.0999 36120.3
13.1152 36137.4
13.1305 36136.3
13.1459 36095.2
13.1612 36071.3
13.1765 36048.1
13.1918 36054.5
13.2071 36058.4
13.2224 36065.9
13.2378 36067.5
13.2531 36107.4
13.2684 36164.1
13.2837 36175.5
13.299 36210.2
13.3143 36256.7
13.3297 36310.3
13.345 36369.6
13.3603 36436.3
13.3756 36546.1
13.3909 36691.6
13.4062 36860.9
13.4216 37031.5
13.4369 37202.4
13.4522 37375.2
13.4675 37574.3
13.4828 37741.3
13.4981 37852.2
13.5135 37929.7
13.5288 37974.8
13.5441 38026.2
13.5594 38078.8
13.5747 38138.3
13.59 38182
13.6054 38201.2
13.6207 38167.6
13.636 38068.9
13.6513 37897.5
13.6666 37709.8
13.6819 37507
13.6973 37305.4
13.7126 37138.2
13.7279 36997
13.7432 36881.4
13.7585 36777.7
13.7738 36706.9
13.7891 36664.7
13.8045 36618.1
13.8198 36583.8
13.8351 36549.2
13.8504 36500.5
13.8657 36479.7
13.881 36477.2
13.8964 36480.7
13.9117 36491.5
13.927 36492.4
13.9423 36512.5
13.9576 36549.1
13.9729 36554.7
13.9883 36537
14.0036 36493.3
14.0189 36426.9
14.0342 36305.6
14.0495 36183.7
14.0648 36056.2
14.0802 35919.4
14.0955 35774.2
14.1108 35646.4
14.1261 35517.7
14.1414 35418.4
14.1567 35325.1
14.1721 35251.9
14.1874 35191.6
14.2027 35139.5
14.218 35101
14.2333 35045.5
14.2486 35011.1
14.264 34981.5
14.2793 34974.1
14.2946 34947.3
14.3099 34911.4
14.3252 34853.7
14.3405 34799.8
14.3559 34749.9
14.3712 34710.2
14.3865 34700.4
14.4018 34689
14.4171 34711.5
14.4324 34721.5
14.4478 34733.9
14.4631 34705.2
14.4784 34682.7
14.4937 34688
14.509 34709.9
14.5243 34748.6
14.5397 34768.4
14.555 34793.9
14.5703 34830.7
14.5856 34831.8
14.6009 34839.6
14.6162 34840.3
14.6315 34807.7
14.6469 34765.4
14.6622 34746.3
14.6775 34717.3
14.6928 34695.4
14.7081 34654
14.7234 34600.8
14.7388 34557.1
14.7541 34512.1
14.7694 34461.3
14.7847 34431.3
14.8 34371.7
14.8153 34301.8
14.8307 34243.1
14.846 34203.8
14.8613 34145.4
14.8766 34091.7
14.8919 34029.7
14.9072 33984.7
14.9226 33943.8
14.9379 33891.1
14.9532 33857.9
14.9685 33862.5
14.9838 33854.6
14.9991 33846.4
15.0145 33819.9
15.0298 33790.4
15.0451 33781.7
15.0604 33769.7
15.0757 33767.2
15.091 33760.4
15.1064 33751.9
15.1217 33733.4
15.137 33695.6
15.1523 33693.6
15.1676 33757.7
15.1829 33803.7
15.1983 33795.9
15.2136 33785.6
15.2289 33805.7
15.2442 33858.8
15.2595 33901.2
15.2748 33929.1
15.2902 33949.3
15.3055 33969.3
15.3208 34007
15.3361 34052.6
15.3514 34094.2
15.3667 34114.8
15.382 34111
15.3974 34095.6
15.4127 34086.3
15.428 34077.3
15.4433 34055.7
15.4586 34017.9
15.4739 33977.2
15.4893 33930.3
15.5046 33901.5
15.5199 33879.6
15.5352 33861.4
15.5505 33834.7
15.5658 33813
15.5812 33791.1
15.5965 33797
15.6118 33782.5
15.6271 33761.6
15.6424 33731.3
15.6577 33696
15.6731 33680.7
15.6884 33674.4
15.7037 33677.9
15.719 33675.3
15.7343 33650.9
15.7496 33631.4
15.765 33576.8
15.7803 33543.2
15.7956 33522.7
15.8109 33491.7
15.8262 33453.7
15.8415 33390.3
15.8569 33359.9
15.8722 33349
15.8875 33296.1
15.9028 33230.1
15.9181 33202.6
15.9334 33152
15.9488 33105.5
15.9641 33070.1
15.9794 33051.7
15.9947 33030.5
16.01 32971.5
16.0253 32955
16.0407 32961.1
16.056 32932.6
16.0713 32906.5
16.0866 32874.9
16.1019 32861.3
16.1172 32868.9
16.1326 32895.1
16.1479 32928.6
16.1632 32936.3
16.1785 32922.2
16.1938 32912.4
16.2091 32892.4
16.2244 32865.4
16.2398 32828.3
16.2551 32825.3
16.2704 32844.1
16.2857 32831.3
16.301 32812.5
16.3163 32805.4
16.3317 32787.1
16.347 32797.3
16.3623 32801.1
16.3776 32787.6
16.3929 32771.2
16.4082 32767.7
16.4236 32753.1
16.4389 32708.5
16.4542 32665.4
16.4695 32621
16.4848 32584
16.5001 32569.1
16.5155 32563.8
16.5308 32562.8
16.5461 32538.7
16.5614 32535.1
16.5767 32511.4
16.592 32431.9
16.6074 32352.4
16.6227 32340.9
16.638 32330.9
16.6533 32339.5
16.6686 32346.5
16.6839 32319.7
16.6993 32291.7
16.7146 32243.6
16.7299 32227.5
16.7452 32274.7
16.7605 32266.3
16.7758 32202.3
16.7912 32168.3
16.8065 32174.4
16.8218 32170
16.8371 32165.3
16.8524 32134.1
16.8677 32119.2
16.8831 32099.5
16.8984 32094
16.9137 32063.5
16.929 32034.3
16.9443 32053.1
16.9596 32051.6
16.9749 32037.5
16.9903 32018.7
17.0056 31982.2
17.0209 31946.6
17.0362 31945.4
17.0515 31934.5
17.0668 31903.5
17.0822 31882.2
17.0975 31867.1
17.1128 31832.4
17.1281 31805.2
17.1434 31786.8
17.1587 31792.6
17.1741 31796.5
17.1894 31805.6
17.2047 31803.8
17.22 31756.8
17.2353 31718.7
17.2506 31724.2
17.266 31705.1
17.2813 31658.1
17.2966 31618.1
17.3119 31589.4
17.3272 31574.8
17.3425 31582.8
17.3579 31564.6
17.3732 31540.4
17.3885 31568.8
17.4038 31601.7
17.4191 31616
17.4344 31604.8
17.4498 31601.6
17.4651 31619.9
17.4804 31636.2
17.4957 31616.4
17.511 31568.3
17.5263 31551.5
17.5417 31554
17.557 31551.6
17.5723 31538.5
17.5876 31514.8
17.6029 31529.9
17.6182 31540.4
17.6336 31557.3
17.6489 31575.3
17.6642 31586.3
17.6795 31579.5
17.6948 31599.6
17.7101 31620
17.7255 31624.8
17.7408 31624.8
17.7561 31612.7
17.7714 31564.2
17.7867 31534.7
17.802 31527.2
17.8173 31513.2
17.8327 31457.7
17.848 31418.1
17.8633 31422.7
17.8786 31424.4
17.8939 31416.9
17.9092 31410.1
17.9246 31429.6
17.9399 31424.8
17.9552 31390
17.9705 31372.2
17.9858 31378.1
18.0011 31368.6
18.0165 31337.3
18.0318 31323.1
18.0471 31294.2
18.0624 31275.5
18.0777 31259.2
18.093 31260.1
18.1084 31265.8
18.1237 31273.1
18.139 31252.1
18.1543 31242.4
18.1696 31269.3
18.1849 31238.3
18.2003 31213.9
18.2156 31219.6
18.2309 31220.8
18.2462 31211.4
18.2615 31209
18.2768 31201.2
18.2922 31206.6
18.3075 31233.2
18.3228 31251
18.3381 31256.5
18.3534 31270.3
18.3687 31283
18.3841 31302.3
18.3994 31330.1
18.4147 31350.2
18.43 31336.4
18.4453 31304.7
18.4606 31285
18.476 31306.8
18.4913 31311.6
18.5066 31272.2
18.5219 31241.4
18.5372 31210.7
18.5525 31177.4
18.5679 31131.4
18.5832 31114.3
18.5985 31124.1
18.6138 31100
18.6291 31070.6
18.6444 31050.8
18.6597 31039.9
18.6751 31037.8
18.6904 31062.2
18.7057 31038.2
18.721 31007.6
18.7363 30982.7
18.7516 30984
18.767 30995.9
18.7823 30953.8
18.7976 30879.9
18.8129 30853.9
18.8282 30861.4
18.8435 30855.6
18.8589 30827.6
18.8742 30791
18.8895 30732.5
18.9048 30715.8
18.9201 30700
18.9354 30684.5
18.9508 30661.9
18.9661 30641.5
18.9814 30616.6
18.9967 30570.8
19.012 30503.6
19.0273 30506
19.0427 30559.9
19.058 30559.3
19.0733 30535.2
19.0886 30503.2
19.1039 30489.4
19.1192 30462.6
19.1346 30460
19.1499 30453.2
19.1652 30446.3
19.1805 30402.4
19.1958 30399.8
19.2111 30426.2
19.2265 30423
19.2418 30418.3
19.2571 30400.6
19.2724 30384.4
19.2877 30396.5
19.303 30392.9
19.3184 30371.8
19.3337 30314.5
19.349 30294.2
19.3643 30290.2
19.3796 30277.4
19.3949 30243.9
19.4102 30232.9
19.4256 30229.4
19.4409 30178.1
19.4562 30156.2
19.4715 30130.4
19.4868 30116.9
19.5021 30116.5
19.5175 30128.3
19.5328 30110.2
19.5481 30082.1
19.5634 30062.7
19.5787 30036.4
19.594 30007.5
19.6094 30023.8
19.6247 30000.4
19.64 29937.7
19.6553 29949.7
19.6706 29971.2
19.6859 29961.2
19.7013 29958.9
19.7166 29975.3
19.7319 29954.9
19.7472 29934
19.7625 29919.1
19.7778 29925.2
19.7932 29935.2
19.8085 29892.6
19.8238 29870.8
19.8391 29878.2
19.8544 29838.2
19.8697 29817.8
19.8851 29851.3
19.9004 29863.9
19.9157 29840
19.931 29784.9
19.9463 29792
19.9616 29802.7
19.977 29781
19.9923 29779.2
20.0076 29772.3
20.0229 29746.7
20.0382 29721.9
20.0535 29663.8
20.0689 29648.1
20.0842 29672.7
20.0995 29697.6
20.1148 29684.4
20.1301 29654.4
20.1454 29646.2
20.1608 29677.7
20.1761 29724.2
20.1914 29709.8
20.2067 29637.5
20.222 29600.5
20.2373 29650.3
20.2526 29702.7
20.268 29687.8
20.2833 29687.9
20.2986 29689.8
20.3139 29665.9
20.3292 29652.4
20.3445 29641.2
20.3599 29608.7
20.3752 29564.9
20.3905 29555.4
20.4058 29595.2
20.4211 29627.8
20.4364 29597.9
20.4518 29608
20.4671 29640.8
20.4824 29667.7
20.4977 29684.8
20.513 29689.5
20.5283 29685.8
20.5437 29680.5
20.559 29690.3
20.5743 29631.7
20.5896 29615.6
20.6049 29637.9
20.6202 29632.6
20.6356 29590
20.6509 29607.7
20.6662 29642.2
20.6815 29654
20.6968 29650.8
20.7121 29604.7
20.7275 29594.9
20.7428 29576.8
20.7581 29536.5
20.7734 29526.6
20.7887 29533.8
20.804 29545
20.8194 29562.1
20.8347 29612.2
20.85 29613.3
20.8653 29587.3
20.8806 29592.9
20.8959 29550.4
20.9113 29531.9
20.9266 29544.1
20.9419 29537.8
20.9572 29502.5
20.9725 29496.1
20.9878 29458.7
21.0031 29439.2
21.0185 29496
21.0338 29505.2
21.0491 29508.9
21.0644 29511.7
21.0797 29495.8
21.095 29503.1
21.1104 29515.2
21.1257 29545.1
21.141 29530.4
21.1563 29493.3
21.1716 29523.5
21.1869 29546.4
21.2023 29530.8
21.2176 29492.4
21.2329 29468.6
21.2482 29496.1
21.2635 29487.5
21.2788 29462.5
21.2942 29464
21.3095 29441.9
21.3248 29437.9
21.3401 29429
21.3554 29423.4
21.3707 29423.6
21.3861 29453.8
21.4014 29436.6
21.4167 29425.3
21.432 29439.9
21.4473 29457.5
21.4626 29454.5
21.478 29429.7
21.4933 29460.1
21.5086 29437.1
21.5239 29429.4
21.5392 29455.7
21.5545 29460
21.5699 29409.5
21.5852 29386.1
21.6005 29390.1
21.6158 29384.4
21.6311 29362.6
21.6464 29343.2
21.6618 29346.6
21.6771 29383.8
21.6924 29409.3
21.7077 29416.9
21.723 29433
21.7383 29439.5
21.7537 29475.8
21.769 29501.6
21.7843 29521
21.7996 29494.1
21.8149 29531.4
21.8302 29498.4
21.8455 29465.7
21.8609 29422.8
21.8762 29430.2
21.8915 29470.7
21.9068 29473.1
21.9221 29482.9
21.9374 29505.1
21.9528 29517.2
21.9681 29526.1
21.9834 29519
21.9987 29507.5
22.014 29477.9
22.0293 29517.8
22.0447 29574.3
22.06 29610.6
22.0753 29579.8
22.0906 29563.5
22.1059 29571.8
22.1212 29592.8
22.1366 29610.2
22.1519 29621.2
22.1672 29628.1
22.1825 29639.7
22.1978 29646.8
22.2131 29612.8
22.2285 29592.7
22.2438 29589.5
22.2591 29574.8
22.2744 29553.6
22.2897 29573.2
22.305 29586.6
22.3204 29657.6
22.3357 29717.1
22.351 29693.1
22.3663 29673
22.3816 29698.8
22.3969 29748.7
22.4123 29758.4
22.4276 29774.1
22.4429 29710.6
22.4582 29685.3
22.4735 29713.9
22.4888 29738
22.5042 29726.8
22.5195 29751.4
22.5348 29733.7
22.5501 29774.1
22.5654 29764.5
22.5807 29714.9
22.596 29727.2
22.6114 29801.9
22.6267 29743.2
22.642 29739.1
22.6573 29744.3
22.6726 29728.4
22.6879 29784.5
22.7033 29819.8
22.7186 29820.1
22.7339 29836.1
22.7492 29804.4
22.7645 29792.9
22.7798 29761.4
22.7952 29759
22.8105 29761.3
22.8258 29804.7
22.8411 29781.4
22.8564 29845.7
22.8717 29871.8
22.8871 29856.5
22.9024 29909
22.9177 29891.7
22.933 29851.5
22.9483 29879.3
22.9636 29894.2
22.979 29879.9
22.9943 29939.5
