# xPDFsuite Configuration #
[PDF]
wavelength = 0.1
dataformat = QA
inputfile = B3_Bronze-3nm_ss_23.chi
backgroundfile = B3_Li-bkg_ss.chi
mode = xray
bgscale = 0.98705
composition = Ti O2
outputtype = iq
qmaxinst = 23.0
qmin = 0.1
qmax = 23.0
rmax = 30.0
rmin = 0.0
rstep = 0.01
rpoly = 0.9

[Misc]
inputdir = E:/Beamtime/PETRA-III_September-2019/BeamData/processed/Run1/B3/chi/chi_w_sigmas/chi_scaled
savedir = E:/Beamtime/PETRA-III_September-2019/BeamData/processed/Run1/B3
backgroundfilefull = E:/Beamtime/PETRA-III_September-2019/BeamData/processed/Run1/B3/chi/chi_w_sigmas/chi_scaled/B3_Li-bkg_ss.chi

#### start data
#S 1
#L Q($\AA^{-1}$)  intensity(a.u.)
0.111649 0
0.126965 0
0.142282 0
0.157598 0
0.172914 0
0.188231 0
0.203547 0
0.218864 0
0.23418 0
0.249496 0
0.264813 0
0.280129 0
0.295445 0
0.310762 0
0.326078 0
0.341394 0
0.356711 0
0.372027 0
0.387343 0
0.40266 0
0.417976 0
0.433292 0
0.448609 0
0.463925 0
0.479241 0
0.494558 0
0.509874 0
0.525191 0
0.540507 0
0.555823 0
0.57114 0
0.586456 0
0.601772 0
0.617089 0
0.632405 0
0.647721 0
0.663038 0
0.678354 0
0.69367 0
0.708987 0
0.724303 0
0.739619 0
0.754936 0
0.770252 0
0.785568 0
0.800885 0
0.816201 0
0.831518 0
0.846834 0
0.86215 1.5719
0.877467 112856
0.892783 113745
0.908099 114643
0.923416 116372
0.938732 118883
0.954048 121148
0.969365 122478
0.984681 122534
0.999997 120747
1.01531 117511
1.03063 111869
1.04595 105090
1.06126 96864.2
1.07658 87356.9
1.0919 78022.3
1.10721 67594.7
1.12253 58271.6
1.13784 48961.8
1.15316 40670.6
1.16848 33411.6
1.18379 26589
1.19911 21046.2
1.21443 15980.3
1.22974 11793.3
1.24506 8531.64
1.26038 5920.87
1.27569 4238.79
1.29101 3036.78
1.30632 2398.63
1.32164 2522.22
1.33696 3197.24
1.35227 4399.12
1.36759 6002.69
1.38291 7769.05
1.39822 9893.06
1.41354 11956.6
1.42886 14014.8
1.44417 15984
1.45949 17956.7
1.4748 20141.2
1.49012 22595.7
1.50544 25687.8
1.52075 29579.9
1.53607 34523.6
1.55139 41004.4
1.5667 48315.4
1.58202 57503.9
1.59733 67186.4
1.61265 77439.1
1.62797 87856.1
1.64328 97356.2
1.6586 106436
1.67392 113822
1.68923 119817
1.70455 124032
1.71987 126571
1.73518 127890
1.7505 128408
1.76581 129057
1.78113 129477
1.79645 130066
1.81176 130462
1.82708 130700
1.8424 130225
1.85771 129425
1.87303 127876
1.88835 125759
1.90366 123032
1.91898 119824
1.93429 116405
1.94961 113025
1.96493 109988
1.98024 107331
1.99556 104746
2.01088 102280
2.02619 99326.8
2.04151 96059.1
2.05683 92133.4
2.07214 88031.4
2.08746 83913.4
2.10277 79831.2
2.11809 76192.8
2.13341 72813.6
2.14872 69993.2
2.16404 67573.7
2.17936 65561.5
2.19467 63923.3
2.20999 62408.2
2.22531 61135.8
2.24062 59860.2
2.25594 58680.1
2.27125 57520.2
2.28657 56398.9
2.30189 55397.7
2.3172 54450.9
2.33252 53647.6
2.34784 52943.7
2.36315 52401.4
2.37847 52069.5
2.39379 51775.9
2.4091 51820.4
2.42442 51823.4
2.43973 52053.9
2.45505 52243.7
2.47037 52381.4
2.48568 52631.9
2.501 52944.9
2.51632 53268.6
2.53163 53507
2.54695 53840.4
2.56226 54293.6
2.57758 54871
2.5929 55295
2.60821 55778.6
2.62353 56079.6
2.63885 56342.4
2.65416 56524.7
2.66948 56739.5
2.6848 57130.4
2.70011 57655.7
2.71543 58665.9
2.73074 59939
2.74606 61808.9
2.76138 64259
2.77669 67461.7
2.79201 71608.5
2.80733 76542.6
2.82264 82924.4
2.83796 90587.7
2.85328 99610.7
2.86859 110441
2.88391 122247
2.89922 135785
2.91454 149631
2.92986 163548
2.94517 176888
2.96049 188741
2.97581 199156
2.99112 206920
3.00644 212222
3.02176 214689
3.03707 214463
3.05239 211785
3.0677 207077
3.08302 200640
3.09834 193081
3.11365 184753
3.12897 175960
3.14429 167080
3.1596 158055
3.17492 149499
3.19024 140845
3.20555 132931
3.22087 125448
3.23618 118382
3.2515 111989
3.26682 105941
3.28213 100492
3.29745 95277.4
3.31277 90613.5
3.32808 86303.7
3.3434 82345.4
3.35872 79058.7
3.37403 76080.4
3.38935 73839.4
3.40466 72036.4
3.41998 70726.2
3.4353 69807.7
3.45061 69202.2
3.46593 68975
3.48125 68888.5
3.49656 68931.8
3.51188 68931.4
3.52719 68939.3
3.54251 68911.7
3.55783 68738
3.57314 68452
3.58846 68060.2
3.60378 67609
3.61909 67255.3
3.63441 66894.7
3.64973 66725
3.66504 66642.4
3.68036 66789.3
3.69567 67145.5
3.71099 67729.7
3.72631 68544.7
3.74162 69457
3.75694 70538.2
3.77226 71594.7
3.78757 72527.7
3.80289 73239.5
3.81821 73658.8
3.83352 73797.2
3.84884 73656.9
3.86415 73265
3.87947 72600.8
3.89479 71756.4
3.9101 70807.1
3.92542 69852.2
3.94074 69034.4
3.95605 68394.9
3.97137 68034.6
3.98669 67828.1
4.002 67894.6
4.01732 68141.3
4.03263 68625.9
4.04795 69335.3
4.06327 70416.5
4.07858 71810.5
4.0939 73618.5
4.10922 75755.2
4.12453 78322.3
4.13985 81364.6
4.15517 84597.2
4.17048 88081.5
4.1858 91477.3
4.20111 94881.4
4.21643 98118.1
4.23175 100980
4.24706 103462
4.26238 105286
4.2777 106602
4.29301 107208
4.30833 107082
4.32365 106262
4.33896 104751
4.35428 102566
4.36959 99772.1
4.38491 96437
4.40023 92784.2
4.41554 88776.8
4.43086 84639.9
4.44618 80536.9
4.46149 76411.9
4.47681 72640.3
4.49213 69161.2
4.50744 66178.9
4.52276 63646.8
4.53807 61472.5
4.55339 59716.1
4.56871 58228
4.58402 57078.1
4.59934 56147.1
4.61466 55530.3
4.62997 55149.9
4.64529 54987.9
4.6606 54980.8
4.67592 55149.2
4.69124 55414.5
4.70655 55819.8
4.72187 56310
4.73719 56875
4.7525 57448.2
4.76782 57982.8
4.78314 58577.4
4.79845 59098.7
4.81377 59626.5
4.82908 60121.1
4.8444 60687
4.85972 61293.9
4.87503 62001.8
4.89035 62765.2
4.90567 63659.1
4.92098 64674.9
4.9363 65898.1
4.95162 67333.4
4.96693 68968.4
4.98225 70948.7
4.99756 73425.9
5.01288 76165.2
5.0282 78968.4
5.04351 81857.2
5.05883 84313
5.07415 86387.7
5.08946 87853.7
5.10478 88621.9
5.1201 88930
5.13541 88618.8
5.15073 88086.3
5.16604 87256.7
5.18136 86394.1
5.19668 85594.9
5.21199 84951.6
5.22731 84352.2
5.24263 83768.6
5.25794 82969.5
5.27326 82031.5
5.28858 80871.7
5.30389 79645.2
5.31921 78469
5.33452 77480
5.34984 76659.6
5.36516 75923.4
5.38047 75129.4
5.39579 74145.5
5.41111 72892.9
5.42642 71267.3
5.44174 69329.5
5.45706 66958.8
5.47237 64368.3
5.48769 61603
5.503 58957.6
5.51832 56658.7
5.53364 54687.2
5.54895 53228.5
5.56427 52175.2
5.57959 51461.6
5.5949 51072.8
5.61022 50784.7
5.62553 50600.5
5.64085 50353.3
5.65617 50104.1
5.67148 49855.8
5.6868 49651.5
5.70212 49467.8
5.71743 49282.3
5.73275 49163.3
5.74807 49104.1
5.76338 49173.7
5.7787 49381.4
5.79401 49734.6
5.80933 50271.3
5.82465 50896.7
5.83996 51657
5.85528 52437.5
5.8706 53290.6
5.88591 54122.4
5.90123 54942.2
5.91655 55658.7
5.93186 56271.9
5.94718 56704.4
5.96249 56916.6
5.97781 56933.2
5.99313 56724.3
6.00844 56358.2
6.02376 55801.2
6.03908 55191.6
6.05439 54493.1
6.06971 53772.3
6.08503 53062.1
6.10034 52432.5
6.11566 51892.5
6.13097 51424.2
6.14629 51068.2
6.16161 50785.6
6.17692 50632.7
6.19224 50610.5
6.20756 50674.1
6.22287 50895.2
6.23819 51199.8
6.25351 51574.8
6.26882 51932.1
6.28414 52220.4
6.29945 52391.6
6.31477 52448
6.33009 52375.7
6.3454 52201.9
6.36072 51896.1
6.37604 51535.2
6.39135 51168.7
6.40667 50886.8
6.42199 50735
6.4373 50670.7
6.45262 50732.3
6.46793 50951.1
6.48325 51309.2
6.49857 51746.7
6.51388 52234.8
6.5292 52773.5
6.54452 53361.4
6.55983 53949.3
6.57515 54586.1
6.59046 55226.4
6.60578 55905.3
6.6211 56579.1
6.63641 57234.8
6.65173 57842.9
6.66705 58401
6.68236 58926.3
6.69768 59337.6
6.713 59628.1
6.72831 59759.9
6.74363 59765.2
6.75894 59657.1
6.77426 59465.9
6.78958 59190.1
6.80489 58847.3
6.82021 58457.5
6.83553 58052.6
6.85084 57598.3
6.86616 57115.4
6.88148 56617.7
6.89679 56123.6
6.91211 55602.3
6.92742 55051.4
6.94274 54507.3
6.95806 53954.2
6.97337 53400.4
6.98869 52879.8
7.00401 52379.5
7.01932 51908.8
7.03464 51446.3
7.04996 51039.8
7.06527 50696.2
7.08059 50435
7.0959 50244.1
7.11122 50051.2
7.12654 49906.3
7.14185 49802.4
7.15717 49792.9
7.17249 49812.6
7.1878 49903.7
7.20312 50047
7.21844 50249.7
7.23375 50481.7
7.24907 50725.1
7.26438 50982.8
7.2797 51239.7
7.29502 51479.5
7.31033 51720.5
7.32565 51943.4
7.34097 52140.8
7.35628 52266.5
7.3716 52288
7.38692 52236.5
7.40223 52092.6
7.41755 51926.1
7.43286 51706.3
7.44818 51415.7
7.4635 51088.3
7.47881 50773.6
7.49413 50503.7
7.50945 50228.2
7.52476 49958.3
7.54008 49587.6
7.55539 49194.9
7.57071 48767.1
7.58603 48316.3
7.60134 47832.3
7.61666 47336.6
7.63198 46848.7
7.64729 46387
7.66261 45982.4
7.67793 45680.2
7.69324 45500.1
7.70856 45458.5
7.72387 45553.6
7.73919 45750.5
7.75451 46049.9
7.76982 46392
7.78514 46731
7.80046 47025.4
7.81577 47224.5
7.83109 47284.9
7.84641 47220.5
7.86172 47008.7
7.87704 46702.4
7.89235 46323.3
7.90767 45952.7
7.92299 45610.1
7.9383 45327.9
7.95362 45108.3
7.96894 44947.2
7.98425 44821.2
7.99957 44711.5
8.01489 44614.7
8.0302 44533.4
8.04552 44449.6
8.06083 44352.8
8.07615 44224.8
8.09147 44097
8.10678 43988.5
8.1221 43868.8
8.13742 43763.3
8.15273 43671.2
8.16805 43608.2
8.18337 43568.5
8.19868 43515.6
8.214 43502.4
8.22931 43497.6
8.24463 43489.2
8.25995 43414.3
8.27526 43325.4
8.29058 43185.8
8.3059 43066.9
8.32121 42902.4
8.33653 42763.5
8.35185 42627
8.36716 42501.3
8.38248 42410.1
8.39779 42373.9
8.41311 42372.3
8.42843 42400.3
8.44374 42471.4
8.45906 42559.9
8.47438 42662.5
8.48969 42792.8
8.50501 42976.3
8.52032 43156.9
8.53564 43330.4
8.55096 43515.9
8.56627 43694.6
8.58159 43855.9
8.59691 43999.5
8.61222 44202.7
8.62754 44382.7
8.64286 44532.5
8.65817 44662.1
8.67349 44787.7
8.6888 44866.2
8.70412 44940.8
8.71944 45081.6
8.73475 45308
8.75007 45613.8
8.76539 45994.1
8.7807 46431.1
8.79602 46837
8.81134 47182
8.82665 47429.2
8.84197 47593.1
8.85728 47629.8
8.8726 47589.7
8.88792 47501.6
8.90323 47447.9
8.91855 47490.1
8.93387 47661.5
8.94918 47948.9
8.9645 48273.1
8.97982 48601.3
8.99513 48858.8
9.01045 49022
9.02576 49006.3
9.04108 48792
9.0564 48391.2
9.07171 47865.8
9.08703 47278.2
9.10235 46668.5
9.11766 46072.4
9.13298 45559.5
9.1483 45095.1
9.16361 44706.7
9.17893 44371
9.19424 44035.5
9.20956 43704.3
9.22488 43393.2
9.24019 43090.8
9.25551 42797.2
9.27083 42513.4
9.28614 42247.2
9.30146 41980.5
9.31678 41727.7
9.33209 41512.2
9.34741 41316.6
9.36272 41154.1
9.37804 40991.9
9.39336 40891
9.40867 40817.5
9.42399 40779.1
9.43931 40794.6
9.45462 40846.9
9.46994 40968
9.48525 41114.1
9.50057 41309.3
9.51589 41545.2
9.5312 41766.8
9.54652 41930.3
9.56184 42040.1
9.57715 42057.6
9.59247 42006.8
9.60779 41896.9
9.6231 41746.2
9.63842 41580.3
9.65373 41379.3
9.66905 41202.1
9.68437 41061.9
9.69968 40984.7
9.715 40949.5
9.73032 40976
9.74563 41004.1
9.76095 41061.5
9.77627 41114.7
9.79158 41173.4
9.8069 41238
9.82221 41270.3
9.83753 41305
9.85285 41307.9
9.86816 41311.4
9.88348 41312.9
9.8988 41338.6
9.91411 41361.7
9.92943 41423
9.94475 41509.4
9.96006 41631.6
9.97538 41747.7
9.99069 41858
10.006 41969.4
10.0213 42121.3
10.0366 42278.1
10.052 42453.5
10.0673 42621.5
10.0826 42795.7
10.0979 42981.4
10.1132 43158.7
10.1285 43408.3
10.1439 43663.9
10.1592 43943.6
10.1745 44140.9
10.1898 44270.8
10.2051 44306.9
10.2204 44271.2
10.2358 44220.6
10.2511 44203.2
10.2664 44193.1
10.2817 44218.6
10.297 44299.8
10.3123 44459.5
10.3277 44609.6
10.343 44702.1
10.3583 44681.8
10.3736 44576.2
10.3889 44409.5
10.4042 44191.3
10.4196 43926
10.4349 43633.8
10.4502 43324.3
10.4655 43105.8
10.4808 42910.9
10.4961 42765.8
10.5115 42653.8
10.5268 42599.7
10.5421 42596.7
10.5574 42644.3
10.5727 42705.1
10.588 42741
10.6033 42765.6
10.6187 42759.9
10.634 42704.6
10.6493 42598.5
10.6646 42451.9
10.6799 42243.6
10.6952 42020.6
10.7106 41805.3
10.7259 41604.6
10.7412 41446.7
10.7565 41334.1
10.7718 41285.4
10.7871 41250.6
10.8025 41250.4
10.8178 41279.4
10.8331 41314.4
10.8484 41292.7
10.8637 41186.9
10.879 41035.2
10.8944 40839.7
10.9097 40612.6
10.925 40390.9
10.9403 40176.3
10.9556 39962.5
10.9709 39797.5
10.9863 39646.2
11.0016 39528.2
11.0169 39412.1
11.0322 39297.8
11.0475 39176.5
11.0628 39061.7
11.0782 38924.9
11.0935 38783.8
11.1088 38629.4
11.1241 38485.9
11.1394 38385.8
11.1547 38314.5
11.1701 38231.7
11.1854 38160.2
11.2007 38094.2
11.216 38023.6
11.2313 37968.9
11.2466 37899.6
11.262 37850.2
11.2773 37823.5
11.2926 37820.7
11.3079 37820
11.3232 37797
11.3385 37756.9
11.3538 37709.2
11.3692 37644.1
11.3845 37596
11.3998 37565.5
11.4151 37549.9
11.4304 37542.1
11.4457 37532
11.4611 37546.2
11.4764 37546.8
11.4917 37549.6
11.507 37544.7
11.5223 37573
11.5376 37566.9
11.553 37564.4
11.5683 37557.2
11.5836 37541.8
11.5989 37492.2
11.6142 37428.4
11.6295 37347
11.6449 37232.6
11.6602 37093.9
11.6755 36976.5
11.6908 36874.9
11.7061 36794.4
11.7214 36742.3
11.7368 36712.2
11.7521 36693.8
11.7674 36711.3
11.7827 36719.3
11.798 36732.7
11.8133 36708.2
11.8287 36656.2
11.844 36600.1
11.8593 36522.1
11.8746 36446.8
11.8899 36405.1
11.9052 36362.4
11.9206 36302.6
11.9359 36273.9
11.9512 36272.5
11.9665 36269.7
11.9818 36261.3
11.9971 36238.6
12.0125 36201
12.0278 36153.1
12.0431 36118.9
12.0584 36078.4
12.0737 36047.1
12.089 36007.6
12.1044 35987.4
12.1197 35943.7
12.135 35920.6
12.1503 35917.4
12.1656 35908.8
12.1809 35894
12.1962 35886.7
12.2116 35879.1
12.2269 35882.9
12.2422 35892.6
12.2575 35914
12.2728 35913.9
12.2881 35934.9
12.3035 35977.3
12.3188 36012.9
12.3341 36024.3
12.3494 36029.8
12.3647 36068
12.38 36105.2
12.3954 36123.1
12.4107 36154.8
12.426 36170.8
12.4413 36187.4
12.4566 36214.4
12.4719 36241.2
12.4873 36256.8
12.5026 36269.8
12.5179 36285
12.5332 36280.8
12.5485 36286.5
12.5638 36268.3
12.5792 36256.3
12.5945 36280.2
12.6098 36319.4
12.6251 36366.3
12.6404 36394.6
12.6557 36405.9
12.6711 36433
12.6864 36444.9
12.7017 36443.1
12.717 36433.6
12.7323 36435.2
12.7476 36426
12.763 36451.8
12.7783 36494.4
12.7936 36560.5
12.8089 36618.3
12.8242 36673.6
12.8395 36719.7
12.8549 36753
12.8702 36712.5
12.8855 36621.9
12.9008 36554.7
12.9161 36499.6
12.9314 36420.4
12.9467 36296.6
12.9621 36237.5
12.9774 36217.2
12.9927 36203
13.008 36199.5
13.0233 36180.3
13.0386 36176.3
13.054 36181.7
13.0693 36183.1
13.0846 36186
13.0999 36170.3
13.1152 36141.9
13.1305 36106.2
13.1459 36078.2
13.1612 36064.9
13.1765 36033.7
13.1918 36009.1
13.2071 35972.6
13.2224 35953.4
13.2378 35951.3
13.2531 35972
13.2684 36002.4
13.2837 35994.4
13.299 35989.2
13.3143 36000.4
13.3297 36000.6
13.345 36012.4
13.3603 36056.8
13.3756 36162.4
13.3909 36292.6
13.4062 36443.1
13.4216 36621.5
13.4369 36819.3
13.4522 36980.9
13.4675 37124.4
13.4828 37253.9
13.4981 37385.3
13.5135 37448.8
13.5288 37469.4
13.5441 37496.9
13.5594 37571.6
13.5747 37639.8
13.59 37673.8
13.6054 37652.9
13.6207 37574.1
13.636 37416
13.6513 37237.6
13.6666 37063.6
13.6819 36865.4
13.6973 36655.1
13.7126 36466.4
13.7279 36315.7
13.7432 36198.4
13.7585 36109
13.7738 36035.5
13.7891 35966.9
13.8045 35902.6
13.8198 35829.3
13.8351 35775.2
13.8504 35743.9
13.8657 35721.9
13.881 35702.2
13.8964 35699.3
13.9117 35729.3
13.927 35745.3
13.9423 35791.8
13.9576 35820.9
13.9729 35792
13.9883 35735.1
14.0036 35675.3
14.0189 35595.3
14.0342 35481.5
14.0495 35366.2
14.0648 35248.4
14.0802 35111.2
14.0955 34978.3
14.1108 34854.9
14.1261 34726.3
14.1414 34630.1
14.1567 34558.9
14.1721 34489.1
14.1874 34446.1
14.2027 34384.7
14.218 34334.4
14.2333 34297
14.2486 34281.2
14.264 34251.8
14.2793 34220.3
14.2946 34171.8
14.3099 34128.2
14.3252 34095.6
14.3405 34063.5
14.3559 34018.2
14.3712 33993.8
14.3865 33975
14.4018 33963.6
14.4171 33959.2
14.4324 33922.1
14.4478 33872.7
14.4631 33831.7
14.4784 33847.2
14.4937 33854.4
14.509 33876.1
14.5243 33896.7
14.5397 33893
14.555 33899.6
14.5703 33905.5
14.5856 33884
14.6009 33876.8
14.6162 33874.3
14.6315 33823.2
14.6469 33748.9
14.6622 33720.1
14.6775 33699.8
14.6928 33670.6
14.7081 33622.8
14.7234 33580.2
14.7388 33547
14.7541 33513.9
14.7694 33445
14.7847 33395.2
14.8 33370
14.8153 33334.3
14.8307 33296.9
14.846 33284.3
14.8613 33260.4
14.8766 33229.2
14.8919 33186.9
14.9072 33130.4
14.9226 33089.7
14.9379 33030.6
14.9532 32964.5
14.9685 32966.6
14.9838 32980.4
14.9991 32997
15.0145 33004.6
15.0298 33004.5
15.0451 32979.8
15.0604 32959.8
15.0757 32974
15.091 32985.5
15.1064 33001.6
15.1217 33041.2
15.137 33075.9
15.1523 33083
15.1676 33116.4
15.1829 33144.5
15.1983 33151.6
15.2136 33173.3
15.2289 33179.5
15.2442 33211.9
15.2595 33263.1
15.2748 33287.1
15.2902 33333.5
15.3055 33358.9
15.3208 33386.5
15.3361 33428.9
15.3514 33464.4
15.3667 33461.5
15.382 33462.9
15.3974 33469.1
15.4127 33470
15.428 33447.5
15.4433 33403.9
15.4586 33379.2
15.4739 33343.5
15.4893 33309.1
15.5046 33268.6
15.5199 33230.6
15.5352 33218.3
15.5505 33204.8
15.5658 33202.1
15.5812 33178.2
15.5965 33156.9
15.6118 33144.1
15.6271 33154.1
15.6424 33152.5
15.6577 33122.9
15.6731 33069.5
15.6884 33037.4
15.7037 33020.2
15.719 33009.5
15.7343 32996
15.7496 32968.3
15.765 32929.3
15.7803 32904.6
15.7956 32882.5
15.8109 32870.6
15.8262 32864.4
15.8415 32802.9
15.8569 32719.6
15.8722 32635.9
15.8875 32557
15.9028 32477
15.9181 32424.1
15.9334 32379.5
15.9488 32342.8
15.9641 32314.4
15.9794 32296.8
15.9947 32280.6
16.01 32229.3
16.0253 32219.3
16.0407 32202.2
16.056 32172.7
16.0713 32177.3
16.0866 32178.7
16.1019 32176.6
16.1172 32174.9
16.1326 32161.7
16.1479 32146
16.1632 32142
16.1785 32134.2
16.1938 32113.5
16.2091 32117.2
16.2244 32106.5
16.2398 32078.9
16.2551 32094.6
16.2704 32102.8
16.2857 32106.1
16.301 32105.4
16.3163 32094.6
16.3317 32083.4
16.347 32081.7
16.3623 32072.3
16.3776 32031.1
16.3929 31984.7
16.4082 31963.9
16.4236 31979.8
16.4389 31970.3
16.4542 31940.4
16.4695 31905.1
16.4848 31851.9
16.5001 31824.1
16.5155 31804.3
16.5308 31751.8
16.5461 31723
16.5614 31704.6
16.5767 31665.5
16.592 31615.9
16.6074 31537.3
16.6227 31508.6
16.638 31482.8
16.6533 31473.7
16.6686 31496.4
16.6839 31479
16.6993 31413.1
16.7146 31350
16.7299 31328.1
16.7452 31322.7
16.7605 31334.5
16.7758 31311.1
16.7912 31263.2
16.8065 31230.5
16.8218 31204
16.8371 31193.4
16.8524 31164.8
16.8677 31141.7
16.8831 31130.5
16.8984 31121.1
16.9137 31092.1
16.929 31058.5
16.9443 31055
16.9596 31059.7
16.9749 31075.5
16.9903 31050.1
17.0056 31019.5
17.0209 30968.8
17.0362 30930
17.0515 30912.2
17.0668 30883.1
17.0822 30873.6
17.0975 30861.2
17.1128 30821
17.1281 30796.7
17.1434 30783.7
17.1587 30779.4
17.1741 30753.4
17.1894 30713.1
17.2047 30699.3
17.22 30671.8
17.2353 30643.3
17.2506 30618.1
17.266 30570.5
17.2813 30520.4
17.2966 30513.7
17.3119 30525.3
17.3272 30506.5
17.3425 30507.1
17.3579 30514.7
17.3732 30475.9
17.3885 30480.9
17.4038 30514.3
17.4191 30540.8
17.4344 30563.4
17.4498 30564.4
17.4651 30541.2
17.4804 30517.4
17.4957 30497.2
17.511 30469.3
17.5263 30439.1
17.5417 30413.5
17.557 30399.8
17.5723 30417.9
17.5876 30413.5
17.6029 30430.3
17.6182 30437.1
17.6336 30435
17.6489 30458.1
17.6642 30504.5
17.6795 30534.8
17.6948 30538.6
17.7101 30484.4
17.7255 30465.4
17.7408 30477.3
17.7561 30457
17.7714 30451.8
17.7867 30471.4
17.802 30492
17.8173 30488.3
17.8327 30443.2
17.848 30396.3
17.8633 30418.7
17.8786 30421.2
17.8939 30398.3
17.9092 30409.7
17.9246 30409.3
17.9399 30389.9
17.9552 30337.8
17.9705 30344.2
17.9858 30342.8
18.0011 30309.1
18.0165 30306.4
18.0318 30314.6
18.0471 30309.2
18.0624 30280.6
18.0777 30278.8
18.093 30301.5
18.1084 30289
18.1237 30285
18.139 30271.3
18.1543 30252.1
18.1696 30241.1
18.1849 30227.1
18.2003 30223
18.2156 30257.8
18.2309 30248.3
18.2462 30209.2
18.2615 30231.7
18.2768 30236.3
18.2922 30234
18.3075 30284.3
18.3228 30311.1
18.3381 30316
18.3534 30328.6
18.3687 30340.1
18.3841 30376.4
18.3994 30422.9
18.4147 30440.9
18.43 30410.7
18.4453 30351.8
18.4606 30317.4
18.476 30315.4
18.4913 30276.6
18.5066 30241.2
18.5219 30249.8
18.5372 30233.1
18.5525 30184.5
18.5679 30135.7
18.5832 30099.1
18.5985 30108.9
18.6138 30119.3
18.6291 30093.7
18.6444 30071
18.6597 30046.5
18.6751 30030.2
18.6904 30042.6
18.7057 30040.3
18.721 30023.9
18.7363 29978.7
18.7516 29992
18.767 29982.1
18.7823 29919.3
18.7976 29842.4
18.8129 29810.8
18.8282 29801.9
18.8435 29781.9
18.8589 29773.7
18.8742 29750.1
18.8895 29712.5
18.9048 29698.7
18.9201 29669.6
18.9354 29638.5
18.9508 29628.2
18.9661 29615.3
18.9814 29568.9
18.9967 29516.7
19.012 29478.8
19.0273 29484.6
19.0427 29505.8
19.058 29480.9
19.0733 29425.3
19.0886 29384.7
19.1039 29373.4
19.1192 29421.4
19.1346 29410.6
19.1499 29388.2
19.1652 29395.2
19.1805 29353.5
19.1958 29354.8
19.2111 29340.6
19.2265 29320.5
19.2418 29305
19.2571 29285.9
19.2724 29255.4
19.2877 29249.6
19.303 29211
19.3184 29168.4
19.3337 29160
19.349 29174.2
19.3643 29134.6
19.3796 29077.2
19.3949 29058.1
19.4102 29076.4
19.4256 29073.4
19.4409 29032.4
19.4562 28989.6
19.4715 28983.1
19.4868 28957
19.5021 28933.2
19.5175 28939.4
19.5328 28935.9
19.5481 28903
19.5634 28856.1
19.5787 28831.5
19.594 28840.9
19.6094 28863.4
19.6247 28841.6
19.64 28806.2
19.6553 28805.6
19.6706 28794.5
19.6859 28794.3
19.7013 28797.2
19.7166 28762
19.7319 28750.6
19.7472 28718.9
19.7625 28689
19.7778 28701.8
19.7932 28754.2
19.8085 28740
19.8238 28702.6
19.8391 28666.8
19.8544 28626.8
19.8697 28625.2
19.8851 28625.8
19.9004 28608.2
19.9157 28585.7
19.931 28587
19.9463 28591.8
19.9616 28546.3
19.977 28512.4
19.9923 28561.8
20.0076 28535.3
20.0229 28493.7
20.0382 28470
20.0535 28426.7
20.0689 28420.9
20.0842 28435
20.0995 28425.9
20.1148 28430.8
20.1301 28478.8
20.1454 28474.2
20.1608 28459.9
20.1761 28452
20.1914 28433.6
20.2067 28374.3
20.222 28359.6
20.2373 28403.4
20.2526 28375.7
20.268 28352.6
20.2833 28389.3
20.2986 28412.7
20.3139 28416.5
20.3292 28410.7
20.3445 28410.3
20.3599 28417.4
20.3752 28373.8
20.3905 28348.3
20.4058 28355.4
20.4211 28356.6
20.4364 28359.4
20.4518 28369
20.4671 28363.4
20.4824 28407.3
20.4977 28428.4
20.513 28406.8
20.5283 28407.4
20.5437 28373.5
20.559 28354
20.5743 28317.2
20.5896 28312.1
20.6049 28335.1
20.6202 28341.6
20.6356 28320.6
20.6509 28313.8
20.6662 28329.6
20.6815 28349.3
20.6968 28333.2
20.7121 28294.3
20.7275 28274.9
20.7428 28285.2
20.7581 28282.9
20.7734 28243.6
20.7887 28215.9
20.804 28204.9
20.8194 28183.1
20.8347 28196.9
20.85 28233.8
20.8653 28234.2
20.8806 28216
20.8959 28206.9
20.9113 28177.6
20.9266 28178.4
20.9419 28189.8
20.9572 28170.1
20.9725 28171.7
20.9878 28158.7
21.0031 28169
21.0185 28225.4
21.0338 28171.8
21.0491 28189.7
21.0644 28206.1
21.0797 28166.9
21.095 28182
21.1104 28219.3
21.1257 28209.5
21.141 28207.8
21.1563 28195.9
21.1716 28199.2
21.1869 28179.5
21.2023 28185.8
21.2176 28168.8
21.2329 28147.1
21.2482 28154.2
21.2635 28150.4
21.2788 28147.7
21.2942 28175.9
21.3095 28157.6
21.3248 28165.7
21.3401 28159.9
21.3554 28178.9
21.3707 28150.4
21.3861 28147.3
21.4014 28086.3
21.4167 28060.7
21.432 28087.2
21.4473 28125.3
21.4626 28115.4
21.478 28110.8
21.4933 28107.8
21.5086 28087.1
21.5239 28090.7
21.5392 28125.9
21.5545 28139.9
21.5699 28120.4
21.5852 28089.5
21.6005 28108.9
21.6158 28079
21.6311 28048.9
21.6464 28054.6
21.6618 28028.1
21.6771 28026.6
21.6924 28058.6
21.7077 28065.9
21.723 28057.4
21.7383 28082.5
21.7537 28090.5
21.769 28121.4
21.7843 28151.3
21.7996 28103.5
21.8149 28080.1
21.8302 28058.8
21.8455 28086
21.8609 28062.7
21.8762 28069
21.8915 28095.9
21.9068 28120.6
21.9221 28135.7
21.9374 28169.7
21.9528 28148.7
21.9681 28150.7
21.9834 28174.2
21.9987 28145.2
22.014 28139.9
22.0293 28186.3
22.0447 28231.3
22.06 28267.6
22.0753 28239.9
22.0906 28210.1
22.1059 28218.8
22.1212 28247.2
22.1366 28224.7
22.1519 28263.1
22.1672 28280.5
22.1825 28270.7
22.1978 28296.8
22.2131 28266.5
22.2285 28262.1
22.2438 28255.4
22.2591 28254.4
22.2744 28234.4
22.2897 28233
22.305 28241.9
22.3204 28272.4
22.3357 28331.4
22.351 28342.5
22.3663 28336.7
22.3816 28390.4
22.3969 28446.9
22.4123 28406.1
22.4276 28343.6
22.4429 28331.9
22.4582 28317.9
22.4735 28305.6
22.4888 28318
22.5042 28348.7
22.5195 28355
22.5348 28327
22.5501 28372.2
22.5654 28398.4
22.5807 28370.3
22.596 28353.2
22.6114 28378.3
22.6267 28335.9
22.642 28337.8
22.6573 28352.5
22.6726 28361.9
22.6879 28388.9
22.7033 28400.3
22.7186 28384.1
22.7339 28371.2
22.7492 28395.6
22.7645 28416.5
22.7798 28419
22.7952 28389.5
22.8105 28376.2
22.8258 28362.4
22.8411 28370
22.8564 28389.1
22.8717 28439.8
22.8871 28390.5
22.9024 28434.6
22.9177 28447
22.933 28430
22.9483 28465.3
22.9636 28509.3
22.979 28485.4
22.9943 28398.2
