# xPDFsuite Configuration #
[PDF]
wavelength = 0.1
dataformat = QA
inputfile = B3_Bronze-3nm_ss_19.chi
backgroundfile = B3_Li-bkg_ss.chi
mode = xray
bgscale = 0.98705
composition = Ti O2
outputtype = iq
qmaxinst = 23.0
qmin = 0.1
qmax = 23.0
rmax = 30.0
rmin = 0.0
rstep = 0.01
rpoly = 0.9

[Misc]
inputdir = E:/Beamtime/PETRA-III_September-2019/BeamData/processed/Run1/B3/chi/chi_w_sigmas/chi_scaled
savedir = E:/Beamtime/PETRA-III_September-2019/BeamData/processed/Run1/B3
backgroundfilefull = E:/Beamtime/PETRA-III_September-2019/BeamData/processed/Run1/B3/chi/chi_w_sigmas/chi_scaled/B3_Li-bkg_ss.chi

#### start data
#S 1
#L Q($\AA^{-1}$)  intensity(a.u.)
0.111649 0
0.126965 0
0.142282 0
0.157598 0
0.172914 0
0.188231 0
0.203547 0
0.218864 0
0.23418 0
0.249496 0
0.264813 0
0.280129 0
0.295445 0
0.310762 0
0.326078 0
0.341394 0
0.356711 0
0.372027 0
0.387343 0
0.40266 0
0.417976 0
0.433292 0
0.448609 0
0.463925 0
0.479241 0
0.494558 0
0.509874 0
0.525191 0
0.540507 0
0.555823 0
0.57114 0
0.586456 0
0.601772 0
0.617089 0
0.632405 0
0.647721 0
0.663038 0
0.678354 0
0.69367 0
0.708987 0
0.724303 0
0.739619 0
0.754936 0
0.770252 0
0.785568 0
0.800885 0
0.816201 0
0.831518 0
0.846834 0
0.86215 1.59675
0.877467 114641
0.892783 115460
0.908099 116326
0.923416 118100
0.938732 120586
0.954048 122912
0.969365 124310
0.984681 124286
0.999997 122374
1.01531 118970
1.03063 113198
1.04595 106162
1.06126 97735.7
1.07658 88088
1.0919 78738.5
1.10721 68314.5
1.12253 58916.7
1.13784 49527.7
1.15316 41227.3
1.16848 34093.4
1.18379 27480.7
1.19911 22064.2
1.21443 17139.5
1.22974 13039.3
1.24506 9791.93
1.26038 7162.69
1.27569 5401.81
1.29101 4233.66
1.30632 3706.76
1.32164 3774.92
1.33696 4381.7
1.35227 5467.67
1.36759 6995.63
1.38291 8661.82
1.39822 10699
1.41354 12614.2
1.42886 14445.5
1.44417 16190.3
1.45949 17860.8
1.4748 19709.3
1.49012 21829.1
1.50544 24666.7
1.52075 28351.4
1.53607 33339.1
1.55139 39926.1
1.5667 47434.3
1.58202 57008.8
1.59733 67224
1.61265 78424.4
1.62797 89946.7
1.64328 100928
1.6586 111780
1.67392 120920
1.68923 128545
1.70455 134215
1.71987 138014
1.73518 140287
1.7505 141294
1.76581 142119
1.78113 142361
1.79645 142562
1.81176 142370
1.82708 141898
1.8424 140737
1.85771 139285
1.87303 137115
1.88835 134523
1.90366 131429
1.91898 127952
1.93429 124394
1.94961 120869
1.96493 117787
1.98024 114968
1.99556 112125
2.01088 109409
2.02619 106126
2.04151 102527
2.05683 98124
2.07214 93501.3
2.08746 88754.1
2.10277 84015.1
2.11809 79783.7
2.13341 75855.4
2.14872 72528.4
2.16404 69693.4
2.17936 67287.9
2.19467 65377.2
2.20999 63770.3
2.22531 62530.5
2.24062 61382.7
2.25594 60337.8
2.27125 59355.4
2.28657 58314.9
2.30189 57356.9
2.3172 56368.3
2.33252 55553.3
2.34784 54733.7
2.36315 54085.6
2.37847 53605.1
2.39379 53152.4
2.4091 53009.7
2.42442 52806.1
2.43973 52898.5
2.45505 52965.3
2.47037 52978.9
2.48568 53079.9
2.501 53268.2
2.51632 53568.5
2.53163 53689.9
2.54695 53960.5
2.56226 54273.9
2.57758 54705.7
2.5929 55052.5
2.60821 55443.4
2.62353 55729.1
2.63885 55905.7
2.65416 56071
2.66948 56272.5
2.6848 56689.3
2.70011 57276.3
2.71543 58366.6
2.73074 59717.9
2.74606 61616.9
2.76138 64067.7
2.77669 67240.6
2.79201 71328.8
2.80733 76174.7
2.82264 82402.5
2.83796 89874.9
2.85328 98634.3
2.86859 109070
2.88391 120301
2.89922 132980
2.91454 145799
2.92986 158471
2.94517 170333
2.96049 180541
2.97581 189074
2.99112 194968
3.00644 198547
3.02176 199527
3.03707 198279
3.05239 195011
3.0677 190359
3.08302 184615
3.09834 178297
3.11365 171757
3.12897 165172
3.14429 158676
3.1596 152144
3.17492 145954
3.19024 139601
3.20555 133592
3.22087 127681
3.23618 121797
3.2515 116159
3.26682 110497
3.28213 105184
3.29745 99916.8
3.31277 95128
3.32808 90626.9
3.3434 86462
3.35872 82908.7
3.37403 79744.4
3.38935 77272.5
3.40466 75284.6
3.41998 73793.7
3.4353 72694.6
3.45061 71917.7
3.46593 71518.9
3.48125 71323.7
3.49656 71327.8
3.51188 71269.4
3.52719 71272.4
3.54251 71212.3
3.55783 71044.4
3.57314 70740
3.58846 70218.7
3.60378 69617
3.61909 69154.1
3.63441 68699.7
3.64973 68487.6
3.66504 68350.7
3.68036 68584.1
3.69567 69130.5
3.71099 70026
3.72631 71228.5
3.74162 72697.2
3.75694 74323.3
3.77226 75938
3.78757 77395.9
3.80289 78571.4
3.81821 79375.4
3.83352 79716.3
3.84884 79646.8
3.86415 79167.6
3.87947 78273.3
3.89479 77132.3
3.9101 75819.8
3.92542 74462.1
3.94074 73261.1
3.95605 72197.4
3.97137 71434.5
3.98669 70850.4
4.002 70616
4.01732 70653
4.03263 70939.7
4.04795 71461.3
4.06327 72307.9
4.07858 73423.2
4.0939 74875.3
4.10922 76675.7
4.12453 78779.8
4.13985 81162.6
4.15517 83580.6
4.17048 86034.5
4.1858 88327.1
4.20111 90464.6
4.21643 92419
4.23175 94060.4
4.24706 95480.5
4.26238 96563.5
4.2777 97491.1
4.29301 98129.1
4.30833 98495.6
4.32365 98599.2
4.33896 98334.7
4.35428 97665.3
4.36959 96456.6
4.38491 94671.4
4.40023 92457.7
4.41554 89652.1
4.43086 86440.4
4.44618 82921.1
4.46149 79187.7
4.47681 75604.5
4.49213 72098.1
4.50744 68923.7
4.52276 66095.7
4.53807 63670.9
4.55339 61657.8
4.56871 59939.2
4.58402 58539.9
4.59934 57442.8
4.61466 56594.7
4.62997 56110.8
4.64529 55795.9
4.6606 55715.7
4.67592 55799.4
4.69124 56052.1
4.70655 56470.8
4.72187 57003.8
4.73719 57666.7
4.7525 58407.3
4.76782 59126.3
4.78314 59876.6
4.79845 60554.9
4.81377 61208.1
4.82908 61822.7
4.8444 62472.9
4.85972 63156.8
4.87503 63884.2
4.89035 64621.3
4.90567 65444.9
4.92098 66361.4
4.9363 67430.6
4.95162 68680
4.96693 70084.7
4.98225 71810.4
4.99756 74032.2
5.01288 76522.9
5.0282 79137
5.04351 81859.6
5.05883 84188.4
5.07415 86094.2
5.08946 87432.3
5.10478 88064.8
5.1201 88208.6
5.13541 87689.5
5.15073 86964
5.16604 85994.9
5.18136 85010
5.19668 84157.7
5.21199 83480.3
5.22731 82896
5.24263 82399.2
5.25794 81784.6
5.27326 81074.3
5.28858 80252.1
5.30389 79387.6
5.31921 78573.6
5.33452 77853.5
5.34984 77272.2
5.36516 76724.3
5.38047 76094.4
5.39579 75148.8
5.41111 73889.2
5.42642 72194.4
5.44174 70165.3
5.45706 67703.8
5.47237 65003.7
5.48769 62172.1
5.503 59476.4
5.51832 57171.3
5.53364 55206.4
5.54895 53750.3
5.56427 52729.6
5.57959 52025.5
5.5949 51673.8
5.61022 51410.5
5.62553 51314.1
5.64085 51116.3
5.65617 50926.9
5.67148 50745.9
5.6868 50603.2
5.70212 50427.5
5.71743 50218.7
5.73275 50094.1
5.74807 50023.1
5.76338 50090
5.7787 50264
5.79401 50580.9
5.80933 51064.5
5.82465 51637.4
5.83996 52383.7
5.85528 53200.3
5.8706 54064.3
5.88591 54918.4
5.90123 55709.9
5.91655 56424.6
5.93186 57030.4
5.94718 57455.2
5.96249 57674.5
5.97781 57689.3
5.99313 57466.3
6.00844 57059.3
6.02376 56439.2
6.03908 55739.9
6.05439 54966.7
6.06971 54187.7
6.08503 53466.8
6.10034 52809.5
6.11566 52270
6.13097 51788.7
6.14629 51420.5
6.16161 51137
6.17692 50967.7
6.19224 50919.2
6.20756 50964
6.22287 51169.4
6.23819 51477
6.25351 51882.7
6.26882 52300.6
6.28414 52681.8
6.29945 52963.9
6.31477 53080.3
6.33009 53077.5
6.3454 52929.1
6.36072 52648.4
6.37604 52287.1
6.39135 51928.8
6.40667 51627
6.42199 51413.2
6.4373 51326
6.45262 51358.6
6.46793 51513.8
6.48325 51771.3
6.49857 52122.7
6.51388 52566.8
6.5292 53054.3
6.54452 53582.7
6.55983 54138.6
6.57515 54728.8
6.59046 55344.2
6.60578 55995.6
6.6211 56612.2
6.63641 57201.7
6.65173 57712.6
6.66705 58170.6
6.68236 58525.3
6.69768 58780.2
6.713 58947.5
6.72831 59011.4
6.74363 58945.6
6.75894 58774.1
6.77426 58551.7
6.78958 58242.8
6.80489 57910
6.82021 57531.9
6.83553 57128.3
6.85084 56677.3
6.86616 56209
6.88148 55749.6
6.89679 55319.8
6.91211 54879.4
6.92742 54432.6
6.94274 54037.6
6.95806 53681.1
6.97337 53344.9
6.98869 53016
7.00401 52733.9
7.01932 52469.8
7.03464 52199.3
7.04996 51931.4
7.06527 51723.3
7.08059 51572
7.0959 51456
7.11122 51367.9
7.12654 51300.3
7.14185 51244
7.15717 51220.5
7.17249 51229.8
7.1878 51242.8
7.20312 51287.4
7.21844 51359.5
7.23375 51474.7
7.24907 51616
7.26438 51773.2
7.2797 51923.7
7.29502 52076.3
7.31033 52140.6
7.32565 52201.2
7.34097 52205.9
7.35628 52198.6
7.3716 52071.8
7.38692 51887.4
7.40223 51648.1
7.41755 51395.9
7.43286 51109.2
7.44818 50802.4
7.4635 50486.6
7.47881 50173.5
7.49413 49889.9
7.50945 49641.9
7.52476 49429.5
7.54008 49186.8
7.55539 48910.9
7.57071 48625.1
7.58603 48313.4
7.60134 48003.1
7.61666 47663.9
7.63198 47334.3
7.64729 47005.3
7.66261 46717.7
7.67793 46512.7
7.69324 46389.6
7.70856 46357.2
7.72387 46432.5
7.73919 46637.3
7.75451 46924
7.76982 47234.9
7.78514 47512.8
7.80046 47754.3
7.81577 47884.1
7.83109 47894.9
7.84641 47756.2
7.86172 47524.4
7.87704 47184.5
7.89235 46771.9
7.90767 46362.8
7.92299 45960.5
7.9383 45636.7
7.95362 45380.2
7.96894 45207.5
7.98425 45068.2
7.99957 44970.9
8.01489 44909.3
8.0302 44854.4
8.04552 44795.9
8.06083 44743.9
8.07615 44708
8.09147 44626.8
8.10678 44557.8
8.1221 44466.2
8.13742 44454.2
8.15273 44423.4
8.16805 44415.1
8.18337 44365.4
8.19868 44351.9
8.214 44333.1
8.22931 44351
8.24463 44373.6
8.25995 44336.2
8.27526 44237.8
8.29058 44090.6
8.3059 43930
8.32121 43749.9
8.33653 43559.5
8.35185 43392.1
8.36716 43215.4
8.38248 43075
8.39779 42977.2
8.41311 42917
8.42843 42896.1
8.44374 42926.5
8.45906 42972.3
8.47438 43041.4
8.48969 43131.5
8.50501 43250
8.52032 43380.2
8.53564 43535.3
8.55096 43722.4
8.56627 43906.6
8.58159 44103.2
8.59691 44296.5
8.61222 44528.5
8.62754 44713.6
8.64286 44893.5
8.65817 45023.9
8.67349 45174
8.6888 45304.2
8.70412 45450.1
8.71944 45659.6
8.73475 45953.8
8.75007 46303.7
8.76539 46727.9
8.7807 47203.9
8.79602 47630.5
8.81134 47974
8.82665 48224.5
8.84197 48362.1
8.85728 48360.7
8.8726 48262.1
8.88792 48127.3
8.90323 48005.8
8.91855 47977
8.93387 48077.3
8.94918 48306.1
8.9645 48561.9
8.97982 48818.1
8.99513 48993.9
9.01045 49061.4
9.02576 48952.8
9.04108 48673.5
9.0564 48241.6
9.07171 47663.2
9.08703 47035.5
9.10235 46388.5
9.11766 45779.9
9.13298 45236
9.1483 44793.9
9.16361 44426.3
9.17893 44146.7
9.19424 43900.3
9.20956 43657.9
9.22488 43426.8
9.24019 43236.3
9.25551 43030.9
9.27083 42804.8
9.28614 42559.6
9.30146 42332.4
9.31678 42122.3
9.33209 41942.7
9.34741 41766.7
9.36272 41592.9
9.37804 41434.9
9.39336 41302.7
9.40867 41201.9
9.42399 41140.3
9.43931 41158.6
9.45462 41174.9
9.46994 41244.5
9.48525 41347
9.50057 41519.7
9.51589 41710.6
9.5312 41894.1
9.54652 42039
9.56184 42151.8
9.57715 42187.3
9.59247 42163.8
9.60779 42067.4
9.6231 41886.7
9.63842 41688.3
9.65373 41478.8
9.66905 41298.8
9.68437 41155.4
9.69968 41067.8
9.715 41030.3
9.73032 41036.6
9.74563 41055.5
9.76095 41091.3
9.77627 41146.2
9.79158 41216.4
9.8069 41295.7
9.82221 41365.3
9.83753 41415.2
9.85285 41448.8
9.86816 41483.6
9.88348 41507.9
9.8988 41551.2
9.91411 41607.8
9.92943 41718.7
9.94475 41811.2
9.96006 41925.1
9.97538 42050.2
9.99069 42180.1
10.006 42314.6
10.0213 42455.7
10.0366 42608.3
10.052 42780.3
10.0673 42958.1
10.0826 43119.8
10.0979 43297.9
10.1132 43497.5
10.1285 43748.7
10.1439 44043.2
10.1592 44335.6
10.1745 44551.2
10.1898 44657.8
10.2051 44717
10.2204 44694.1
10.2358 44658.5
10.2511 44633.9
10.2664 44618.7
10.2817 44690.8
10.297 44818.1
10.3123 45019.3
10.3277 45202.9
10.343 45339.6
10.3583 45354.8
10.3736 45270.6
10.3889 45086
10.4042 44848.4
10.4196 44574.8
10.4349 44280.5
10.4502 43967.2
10.4655 43722.8
10.4808 43532.7
10.4961 43413.2
10.5115 43321.3
10.5268 43272.1
10.5421 43277.5
10.5574 43322.9
10.5727 43377.7
10.588 43415.8
10.6033 43439
10.6187 43426.6
10.634 43364.2
10.6493 43249.1
10.6646 43089.6
10.6799 42879.2
10.6952 42669.9
10.7106 42456.3
10.7259 42260.8
10.7412 42092.3
10.7565 41977.3
10.7718 41917.2
10.7871 41907
10.8025 41891
10.8178 41867.8
10.8331 41851.5
10.8484 41795.4
10.8637 41663.2
10.879 41492.2
10.8944 41294.1
10.9097 41059.2
10.925 40788
10.9403 40518.5
10.9556 40299.6
10.9709 40123.5
10.9863 39957.9
11.0016 39805.5
11.0169 39676.8
11.0322 39557.9
11.0475 39405.6
11.0628 39221.2
11.0782 39062.4
11.0935 38899.4
11.1088 38755
11.1241 38610
11.1394 38517.4
11.1547 38447.9
11.1701 38363.1
11.1854 38300.8
11.2007 38244.4
11.216 38193.4
11.2313 38145.6
11.2466 38085.7
11.262 38011.6
11.2773 37962.4
11.2926 37939.7
11.3079 37944.5
11.3232 37927.7
11.3385 37885.7
11.3538 37821.2
11.3692 37748.7
11.3845 37700.7
11.3998 37648.4
11.4151 37615.4
11.4304 37601.9
11.4457 37618.6
11.4611 37647.2
11.4764 37665.1
11.4917 37680.3
11.507 37699.5
11.5223 37750.3
11.5376 37780.3
11.553 37795.6
11.5683 37810.5
11.5836 37806.6
11.5989 37805.3
11.6142 37764.4
11.6295 37726.1
11.6449 37652.1
11.6602 37564.4
11.6755 37465.8
11.6908 37378
11.7061 37320.1
11.7214 37275.3
11.7368 37247.5
11.7521 37236.9
11.7674 37262.9
11.7827 37268.2
11.798 37282.6
11.8133 37258.2
11.8287 37219.9
11.844 37167.9
11.8593 37108.9
11.8746 37034.7
11.8899 36978.4
11.9052 36922.1
11.9206 36870.9
11.9359 36847.4
11.9512 36838.6
11.9665 36841.4
11.9818 36813.2
11.9971 36786.8
12.0125 36765.9
12.0278 36742.5
12.0431 36708.1
12.0584 36682.3
12.0737 36648.1
12.089 36591.8
12.1044 36500.9
12.1197 36440.7
12.135 36427.4
12.1503 36437.4
12.1656 36386.1
12.1809 36343
12.1962 36316.7
12.2116 36298.7
12.2269 36299.9
12.2422 36310.3
12.2575 36328.1
12.2728 36303.4
12.2881 36295.9
12.3035 36316.1
12.3188 36370.7
12.3341 36381.8
12.3494 36410.1
12.3647 36430.9
12.38 36458.7
12.3954 36442.6
12.4107 36439.5
12.426 36443.3
12.4413 36457.9
12.4566 36487.8
12.4719 36524.5
12.4873 36532.6
12.5026 36532.8
12.5179 36544.7
12.5332 36535.2
12.5485 36523
12.5638 36524.7
12.5792 36550.3
12.5945 36576.7
12.6098 36585.2
12.6251 36607.9
12.6404 36611.4
12.6557 36620.7
12.6711 36609.6
12.6864 36621.6
12.7017 36626.5
12.717 36626.6
12.7323 36620.6
12.7476 36630.2
12.763 36659
12.7783 36699.8
12.7936 36754.6
12.8089 36824.5
12.8242 36881.6
12.8395 36928.7
12.8549 36952.2
12.8702 36913.2
12.8855 36849.2
12.9008 36787.1
12.9161 36722.9
12.9314 36642
12.9467 36535.1
12.9621 36465.3
12.9774 36429.8
12.9927 36417.5
13.008 36413.6
13.0233 36406.5
13.0386 36403.3
13.054 36417.7
13.0693 36434.5
13.0846 36441.8
13.0999 36458.9
13.1152 36475.8
13.1305 36470.9
13.1459 36445.9
13.1612 36416.9
13.1765 36388.9
13.1918 36370.5
13.2071 36345.1
13.2224 36336.3
13.2378 36344.4
13.2531 36350.1
13.2684 36394.7
13.2837 36408.6
13.299 36387.9
13.3143 36374.1
13.3297 36405.6
13.345 36467.6
13.3603 36524.7
13.3756 36619.4
13.3909 36753.3
13.4062 36894.4
13.4216 37060.2
13.4369 37240.8
13.4522 37406.7
13.4675 37545.1
13.4828 37669.4
13.4981 37793.8
13.5135 37865.3
13.5288 37895.5
13.5441 37938.2
13.5594 37990.5
13.5747 38043.4
13.59 38086.9
13.6054 38086
13.6207 38028.5
13.636 37885.6
13.6513 37689.9
13.6666 37468.8
13.6819 37244.2
13.6973 37031.4
13.7126 36847.3
13.7279 36698.7
13.7432 36566.9
13.7585 36461.2
13.7738 36362.5
13.7891 36292.8
13.8045 36201.1
13.8198 36138.9
13.8351 36121.1
13.8504 36099.9
13.8657 36069.5
13.881 36067
13.8964 36077.6
13.9117 36111.8
13.927 36114.5
13.9423 36113.7
13.9576 36137.3
13.9729 36130.7
13.9883 36111.7
14.0036 36046.4
14.0189 35969.3
14.0342 35832
14.0495 35685.3
14.0648 35565.1
14.0802 35450.1
14.0955 35323.4
14.1108 35209.6
14.1261 35084.3
14.1414 34998.1
14.1567 34907
14.1721 34821.5
14.1874 34792.9
14.2027 34759.8
14.218 34743.8
14.2333 34723.4
14.2486 34682.7
14.264 34649.1
14.2793 34620.8
14.2946 34587.1
14.3099 34539.1
14.3252 34468
14.3405 34424.6
14.3559 34403.1
14.3712 34379
14.3865 34376.9
14.4018 34357.6
14.4171 34328.6
14.4324 34303.1
14.4478 34269.3
14.4631 34232.3
14.4784 34226.6
14.4937 34244.3
14.509 34232.7
14.5243 34232.5
14.5397 34236.4
14.555 34256.2
14.5703 34261.5
14.5856 34245.7
14.6009 34222.9
14.6162 34222.4
14.6315 34202
14.6469 34149.1
14.6622 34126.1
14.6775 34110.5
14.6928 34083.9
14.7081 34025.7
14.7234 33969.5
14.7388 33913
14.7541 33868.2
14.7694 33825.8
14.7847 33784.5
14.8 33757.8
14.8153 33707.7
14.8307 33646.6
14.846 33626.2
14.8613 33614.8
14.8766 33588.5
14.8919 33556.4
14.9072 33529.5
14.9226 33538.1
14.9379 33513.8
14.9532 33460
14.9685 33433.7
14.9838 33420.8
14.9991 33426.5
15.0145 33397.3
15.0298 33387.1
15.0451 33392.6
15.0604 33385.4
15.0757 33382.6
15.091 33365.7
15.1064 33379.2
15.1217 33406.2
15.137 33405
15.1523 33420.4
15.1676 33459.2
15.1829 33496.3
15.1983 33517.7
15.2136 33527.2
15.2289 33544.2
15.2442 33591.6
15.2595 33635.5
15.2748 33649
15.2902 33680
15.3055 33717.1
15.3208 33749.3
15.3361 33793.2
15.3514 33839.6
15.3667 33856.5
15.382 33841.6
15.3974 33836.3
15.4127 33837.7
15.428 33797.7
15.4433 33739.5
15.4586 33694.9
15.4739 33637
15.4893 33595
15.5046 33577.1
15.5199 33582
15.5352 33571.2
15.5505 33513.2
15.5658 33471.1
15.5812 33457.4
15.5965 33472.5
15.6118 33460.2
15.6271 33433.9
15.6424 33384.9
15.6577 33376.7
15.6731 33384.3
15.6884 33361.6
15.7037 33347.8
15.719 33333.1
15.7343 33319.4
15.7496 33282.8
15.765 33236.2
15.7803 33210.7
15.7956 33158.8
15.8109 33118.6
15.8262 33095.6
15.8415 33073.7
15.8569 33025.4
15.8722 32958.5
15.8875 32894.2
15.9028 32843.4
15.9181 32830.8
15.9334 32783.9
15.9488 32707.5
15.9641 32661
15.9794 32640.6
15.9947 32613.6
16.01 32563.7
16.0253 32544.9
16.0407 32531
16.056 32524
16.0713 32502.8
16.0866 32458
16.1019 32453.8
16.1172 32469.7
16.1326 32483.9
16.1479 32488.6
16.1632 32511.4
16.1785 32513.9
16.1938 32490.7
16.2091 32512.1
16.2244 32523.5
16.2398 32476.5
16.2551 32426
16.2704 32427.5
16.2857 32431.7
16.301 32426.2
16.3163 32417.9
16.3317 32438.4
16.347 32465.6
16.3623 32452.9
16.3776 32410.7
16.3929 32374
16.4082 32383
16.4236 32408
16.4389 32390.4
16.4542 32349.7
16.4695 32305.5
16.4848 32250
16.5001 32216.7
16.5155 32206.7
16.5308 32175.1
16.5461 32125.8
16.5614 32108.9
16.5767 32070.6
16.592 32010.6
16.6074 31924.8
16.6227 31876.3
16.638 31878.5
16.6533 31891.2
16.6686 31876.2
16.6839 31847.4
16.6993 31798.1
16.7146 31759.9
16.7299 31724
16.7452 31703.3
16.7605 31666.1
16.7758 31648.2
16.7912 31640.6
16.8065 31613.9
16.8218 31577.9
16.8371 31552
16.8524 31517.7
16.8677 31514
16.8831 31504.2
16.8984 31480.2
16.9137 31424.8
16.929 31382.1
16.9443 31386.5
16.9596 31414.1
16.9749 31439.3
16.9903 31418.9
17.0056 31381.2
17.0209 31336.9
17.0362 31322.6
17.0515 31334.1
17.0668 31319.5
17.0822 31311.6
17.0975 31279.3
17.1128 31201.6
17.1281 31162.9
17.1434 31140.4
17.1587 31128.8
17.1741 31135.6
17.1894 31123
17.2047 31114.5
17.22 31073.4
17.2353 31057.6
17.2506 31055.6
17.266 31037.6
17.2813 31022.2
17.2966 31018.8
17.3119 30985
17.3272 30927.7
17.3425 30905.7
17.3579 30867.8
17.3732 30830.4
17.3885 30850.9
17.4038 30873.5
17.4191 30863.8
17.4344 30846.2
17.4498 30833.4
17.4651 30842.8
17.4804 30862.4
17.4957 30855.9
17.511 30822.2
17.5263 30805.5
17.5417 30805.5
17.557 30801.6
17.5723 30815.1
17.5876 30821.9
17.6029 30845.6
17.6182 30862.7
17.6336 30888.4
17.6489 30901.2
17.6642 30907.7
17.6795 30908.6
17.6948 30941.2
17.7101 30922.9
17.7255 30883.5
17.7408 30884.6
17.7561 30882.5
17.7714 30860.7
17.7867 30841.1
17.802 30841.6
17.8173 30833.3
17.8327 30778.1
17.848 30746.3
17.8633 30756.7
17.8786 30784
17.8939 30799.6
17.9092 30792
17.9246 30792.3
17.9399 30779.5
17.9552 30760
17.9705 30762.2
17.9858 30752.4
18.0011 30721.5
18.0165 30730.3
18.0318 30715.9
18.0471 30688
18.0624 30688.3
18.0777 30711.7
18.093 30736.3
18.1084 30740
18.1237 30721.5
18.139 30679.9
18.1543 30623.7
18.1696 30615.2
18.1849 30599.8
18.2003 30565.9
18.2156 30593.4
18.2309 30633.4
18.2462 30666.5
18.2615 30658.7
18.2768 30656.2
18.2922 30652.2
18.3075 30661
18.3228 30681.4
18.3381 30690.1
18.3534 30706
18.3687 30735
18.3841 30765.6
18.3994 30784.8
18.4147 30785.8
18.43 30795.2
18.4453 30792.2
18.4606 30782.1
18.476 30765.3
18.4913 30742.8
18.5066 30705.5
18.5219 30681.9
18.5372 30619.5
18.5525 30588.6
18.5679 30568.4
18.5832 30549.4
18.5985 30561.6
18.6138 30544
18.6291 30507.5
18.6444 30463.7
18.6597 30438.4
18.6751 30385.9
18.6904 30383.3
18.7057 30401.6
18.721 30377.4
18.7363 30342.5
18.7516 30345.9
18.767 30369.8
18.7823 30315.4
18.7976 30241.5
18.8129 30212
18.8282 30192.9
18.8435 30138.7
18.8589 30128.4
18.8742 30114.1
18.8895 30055
18.9048 30040.5
18.9201 30021.2
18.9354 30003.7
18.9508 30016.1
18.9661 30010.8
18.9814 29972.3
18.9967 29916.2
19.012 29836.8
19.0273 29826.4
19.0427 29842.8
19.058 29819.9
19.0733 29809.1
19.0886 29791.1
19.1039 29788.6
19.1192 29794.7
19.1346 29786
19.1499 29773.1
19.1652 29740.3
19.1805 29730.6
19.1958 29754.2
19.2111 29719.7
19.2265 29701.3
19.2418 29717.3
19.2571 29695.3
19.2724 29653.3
19.2877 29616.5
19.303 29603.6
19.3184 29585.4
19.3337 29554.5
19.349 29531.6
19.3643 29508.2
19.3796 29492.8
19.3949 29475.9
19.4102 29477.2
19.4256 29470.5
19.4409 29403.5
19.4562 29359.4
19.4715 29366.5
19.4868 29345.2
19.5021 29277.3
19.5175 29289.7
19.5328 29317.6
19.5481 29251.3
19.5634 29209.9
19.5787 29220.5
19.594 29225.2
19.6094 29248
19.6247 29230.6
19.64 29167.1
19.6553 29161.7
19.6706 29173.5
19.6859 29156.6
19.7013 29163.1
19.7166 29182.2
19.7319 29163.8
19.7472 29120.1
19.7625 29113.8
19.7778 29094.6
19.7932 29091.3
19.8085 29078.5
19.8238 29079.4
19.8391 29062.4
19.8544 29006.1
19.8697 28979.7
19.8851 29001.8
19.9004 29033.9
19.9157 29004.5
19.931 28970.3
19.9463 28960.5
19.9616 28933.9
19.977 28898.5
19.9923 28899.2
20.0076 28915.8
20.0229 28927.6
20.0382 28929.7
20.0535 28924.6
20.0689 28927.8
20.0842 28923.6
20.0995 28874.7
20.1148 28827.1
20.1301 28853.4
20.1454 28871.8
20.1608 28872.7
20.1761 28868
20.1914 28817.1
20.2067 28757.6
20.222 28739.6
20.2373 28799.6
20.2526 28832.6
20.268 28810.4
20.2833 28817.2
20.2986 28826.4
20.3139 28782
20.3292 28751.9
20.3445 28745.1
20.3599 28732.3
20.3752 28704.7
20.3905 28712.1
20.4058 28761.1
20.4211 28751.2
20.4364 28733.1
20.4518 28750.9
20.4671 28764
20.4824 28798
20.4977 28805.5
20.513 28790.1
20.5283 28801.3
20.5437 28793.5
20.559 28760.4
20.5743 28731.6
20.5896 28740.8
20.6049 28772.6
20.6202 28744.8
20.6356 28693.6
20.6509 28733.3
20.6662 28766.5
20.6815 28749.9
20.6968 28722.4
20.7121 28660.1
20.7275 28642
20.7428 28664.1
20.7581 28659
20.7734 28631.9
20.7887 28617.2
20.804 28600.4
20.8194 28607.1
20.8347 28587.2
20.85 28569.8
20.8653 28580.8
20.8806 28580.9
20.8959 28567.6
20.9113 28562.3
20.9266 28576.9
20.9419 28581.9
20.9572 28575.9
20.9725 28544.8
20.9878 28525.9
21.0031 28512.2
21.0185 28569.1
21.0338 28560.1
21.0491 28529.3
21.0644 28572.4
21.0797 28584.6
21.095 28565.5
21.1104 28537.3
21.1257 28527
21.141 28521.4
21.1563 28529.1
21.1716 28539.8
21.1869 28559.1
21.2023 28545
21.2176 28517.4
21.2329 28507.9
21.2482 28503.9
21.2635 28498.7
21.2788 28515.4
21.2942 28536.9
21.3095 28520.5
21.3248 28522.2
21.3401 28490.2
21.3554 28464.7
21.3707 28431.5
21.3861 28428.4
21.4014 28392.2
21.4167 28410.7
21.432 28451.5
21.4473 28463.9
21.4626 28433.8
21.478 28414.1
21.4933 28434
21.5086 28411.7
21.5239 28414.8
21.5392 28461.5
21.5545 28464.4
21.5699 28456.7
21.5852 28434.8
21.6005 28425
21.6158 28435.6
21.6311 28389.2
21.6464 28377.8
21.6618 28423.5
21.6771 28421.7
21.6924 28451.8
21.7077 28491.5
21.723 28462
21.7383 28435.8
21.7537 28411.1
21.769 28401.3
21.7843 28419
21.7996 28422.2
21.8149 28419.4
21.8302 28403.6
21.8455 28412.3
21.8609 28367.4
21.8762 28393
21.8915 28463.7
21.9068 28460.6
21.9221 28466.8
21.9374 28481.3
21.9528 28465.4
21.9681 28472.6
21.9834 28478.8
21.9987 28486.1
22.014 28451.4
22.0293 28462.3
22.0447 28512
22.06 28551.5
22.0753 28548.9
22.0906 28560.2
22.1059 28529.5
22.1212 28569.5
22.1366 28576.2
22.1519 28569.8
22.1672 28556.1
22.1825 28571.3
22.1978 28586.6
22.2131 28576.4
22.2285 28602.4
22.2438 28565.7
22.2591 28522.9
22.2744 28546.4
22.2897 28503
22.305 28525.1
22.3204 28582.2
22.3357 28616.3
22.351 28628.8
22.3663 28639.9
22.3816 28671.4
22.3969 28677.5
22.4123 28657
22.4276 28616.1
22.4429 28604.5
22.4582 28629.6
22.4735 28611.1
22.4888 28604.2
22.5042 28611.2
22.5195 28620.9
22.5348 28618
22.5501 28628
22.5654 28644.1
22.5807 28600.7
22.596 28582
22.6114 28638
22.6267 28617
22.642 28623.3
22.6573 28645.7
22.6726 28628.9
22.6879 28666.4
22.7033 28648.1
22.7186 28644.2
22.7339 28636.9
22.7492 28613.9
22.7645 28619.4
22.7798 28617.7
22.7952 28584.6
22.8105 28592.7
22.8258 28610
22.8411 28638.8
22.8564 28680.1
22.8717 28721.3
22.8871 28679.3
22.9024 28686.3
22.9177 28641.4
22.933 28657.3
22.9483 28701.7
22.9636 28714.8
22.979 28686.5
22.9943 28674.5
