# xPDFsuite Configuration #
[PDF]
wavelength = 0.1
dataformat = QA
inputfile = B3_Bronze-3nm_ss_41.chi
backgroundfile = B3_Li-bkg_ss.chi
mode = xray
bgscale = 0.98705
composition = Ti O2
outputtype = iq
qmaxinst = 23.0
qmin = 0.1
qmax = 23.0
rmax = 30.0
rmin = 0.0
rstep = 0.01
rpoly = 0.9

[Misc]
inputdir = E:/Beamtime/PETRA-III_September-2019/BeamData/processed/Run1/B3/chi/chi_w_sigmas/chi_scaled
savedir = E:/Beamtime/PETRA-III_September-2019/BeamData/processed/Run1/B3
backgroundfilefull = E:/Beamtime/PETRA-III_September-2019/BeamData/processed/Run1/B3/chi/chi_w_sigmas/chi_scaled/B3_Li-bkg_ss.chi

#### start data
#S 1
#L Q($\AA^{-1}$)  intensity(a.u.)
0.111649 0
0.126965 0
0.142282 0
0.157598 0
0.172914 0
0.188231 0
0.203547 0
0.218864 0
0.23418 0
0.249496 0
0.264813 0
0.280129 0
0.295445 0
0.310762 0
0.326078 0
0.341394 0
0.356711 0
0.372027 0
0.387343 0
0.40266 0
0.417976 0
0.433292 0
0.448609 0
0.463925 0
0.479241 0
0.494558 0
0.509874 0
0.525191 0
0.540507 0
0.555823 0
0.57114 0
0.586456 0
0.601772 0
0.617089 0
0.632405 0
0.647721 0
0.663038 0
0.678354 0
0.69367 0
0.708987 0
0.724303 0
0.739619 0
0.754936 0
0.770252 0
0.785568 0
0.800885 0
0.816201 0
0.831518 0
0.846834 0
0.86215 1.39681
0.877467 100286
0.892783 99505.8
0.908099 99008.4
0.923416 98987.1
0.938732 99209.2
0.954048 99463.5
0.969365 99598.7
0.984681 99107.3
0.999997 97657.2
1.01531 95307.5
1.03063 91493.5
1.04595 86800.7
1.06126 81069.3
1.07658 74179.6
1.0919 67215.6
1.10721 59119.5
1.12253 51593.3
1.13784 43788.1
1.15316 36575.8
1.16848 30141.2
1.18379 24044.6
1.19911 19019.3
1.21443 14405.9
1.22974 10577.6
1.24506 7502.13
1.26038 5100.33
1.27569 3553.99
1.29101 2613.42
1.30632 2323.16
1.32164 2723.96
1.33696 3612.05
1.35227 4920.7
1.36759 6665.07
1.38291 8547.63
1.39822 10694.4
1.41354 12724.5
1.42886 14670.3
1.44417 16427.1
1.45949 18032.7
1.4748 19577.4
1.49012 21217.1
1.50544 23261.9
1.52075 25885.4
1.53607 29480.5
1.55139 34445.1
1.5667 40390
1.58202 48454.4
1.59733 57770
1.61265 68947.3
1.62797 81579.2
1.64328 94700
1.6586 109100
1.67392 122738
1.68923 136046
1.70455 147844
1.71987 157697
1.73518 165874
1.7505 171817
1.76581 176722
1.78113 179480
1.79645 180791
1.81176 180322
1.82708 178392
1.8424 174872
1.85771 170534
1.87303 165232
1.88835 159648
1.90366 154073
1.91898 148808
1.93429 144177
1.94961 140431
1.96493 137642
1.98024 135842
1.99556 134506
2.01088 133603
2.02619 132278
2.04151 130318
2.05683 127336
2.07214 123450
2.08746 118888
2.10277 113586
2.11809 108108
2.13341 102271
2.14872 96673.3
2.16404 91388.2
2.17936 86530.7
2.19467 82458.2
2.20999 78931.8
2.22531 76315.8
2.24062 74173.7
2.25594 72492.5
2.27125 71107.6
2.28657 69821.7
2.30189 68645.5
2.3172 67311
2.33252 65905.5
2.34784 64316.3
2.36315 62762.3
2.37847 61317
2.39379 59782.5
2.4091 58762.7
2.42442 57789.2
2.43973 57372.4
2.45505 57157.7
2.47037 57069.2
2.48568 57288.3
2.501 57598.7
2.51632 58045
2.53163 58260.3
2.54695 58312.6
2.56226 58280.4
2.57758 58273.7
2.5929 58202.3
2.60821 58286.8
2.62353 58255.9
2.63885 58298.3
2.65416 58347.4
2.66948 58460.5
2.6848 58667.8
2.70011 58875.3
2.71543 59345.4
2.73074 59829.6
2.74606 60502.1
2.76138 61345.8
2.77669 62474.7
2.79201 63921.1
2.80733 65733.5
2.82264 68200.4
2.83796 71408
2.85328 75509.9
2.86859 80783.6
2.88391 86986.6
2.89922 94561.7
2.91454 103108
2.92986 112574
2.94517 122614
2.96049 132599
2.97581 142509
2.99112 151099
3.00644 158516
3.02176 163888
3.03707 167075
3.05239 168075
3.0677 166815
3.08302 163695
3.09834 158904
3.11365 153198
3.12897 146957
3.14429 140850
3.1596 135058
3.17492 130278
3.19024 126085
3.20555 122903
3.22087 120356
3.23618 118109
3.2515 116045
3.26682 113744
3.28213 111209
3.29745 108138
3.31277 104782
3.32808 101075
3.3434 97132.1
3.35872 93381.3
3.37403 89601.9
3.38935 86335.5
3.40466 83386.8
3.41998 80888.3
3.4353 78812.4
3.45061 77115.7
3.46593 75971.5
3.48125 75070.7
3.49656 74552.8
3.51188 74242.9
3.52719 74306.6
3.54251 74698.2
3.55783 75330.5
3.57314 76117.2
3.58846 77076.8
3.60378 78071.2
3.61909 79088.2
3.63441 79964.6
3.64973 80711.1
3.66504 81176.5
3.68036 81491
3.69567 81615.3
3.71099 81635.1
3.72631 81697.7
3.74162 81804.6
3.75694 82212.1
3.77226 82815.2
3.78757 83682.2
3.80289 84852.9
3.81821 86229.6
3.83352 87775.2
3.84884 89438.7
3.86415 91012.4
3.87947 92396.5
3.89479 93420.4
3.9101 94021.6
3.92542 94175.8
3.94074 93901
3.95605 93176.7
3.97137 92174.7
3.98669 90846.8
4.002 89492.8
4.01732 88140.6
4.03263 86952.8
4.04795 86060.4
4.06327 85574.2
4.07858 85492.3
4.0939 85748.4
4.10922 86281.4
4.12453 86998.5
4.13985 87816.1
4.15517 88503.8
4.17048 88939.2
4.1858 89047.6
4.20111 88845.5
4.21643 88423.2
4.23175 87703.8
4.24706 86786.5
4.26238 85758.7
4.2777 84779.7
4.29301 83847.3
4.30833 83072.5
4.32365 82526.1
4.33896 82242.9
4.35428 82274
4.36959 82451.5
4.38491 82906.9
4.40023 83377.7
4.41554 83860.7
4.43086 84143.9
4.44618 84199.8
4.46149 83927.8
4.47681 83314.1
4.49213 82293.6
4.50744 80901.4
4.52276 79136
4.53807 77079.2
4.55339 74847.8
4.56871 72475.5
4.58402 70095.6
4.59934 67758.3
4.61466 65595.7
4.62997 63631.8
4.64529 61838.1
4.6606 60326.1
4.67592 59015.7
4.69124 58002.1
4.70655 57226.6
4.72187 56683.9
4.73719 56429.4
4.7525 56409.2
4.76782 56670.8
4.78314 57212
4.79845 57961.7
4.81377 58928
4.82908 60101.1
4.8444 61487.9
4.85972 63019.1
4.87503 64631.4
4.89035 66311.5
4.90567 68005.6
4.92098 69716.6
4.9363 71481.5
4.95162 73303.4
4.96693 75208
4.98225 77314.9
4.99756 79799.6
5.01288 82438.2
5.0282 85089.4
5.04351 87839.7
5.05883 90130
5.07415 91957.5
5.08946 93129.3
5.10478 93473.1
5.1201 93232.9
5.13541 92229.2
5.15073 90837.2
5.16604 89045.2
5.18136 87118.3
5.19668 85262.1
5.21199 83679.2
5.22731 82331.1
5.24263 81275.4
5.25794 80314.3
5.27326 79563.9
5.28858 78985.7
5.30389 78696.9
5.31921 78756.5
5.33452 79103.7
5.34984 79715.4
5.36516 80347.5
5.38047 80831
5.39579 80871.7
5.41111 80367.6
5.42642 79198.5
5.44174 77463.2
5.45706 75068.7
5.47237 72208.2
5.48769 68999
5.503 65721.8
5.51832 62684.9
5.53364 59887.5
5.54895 57668.4
5.56427 55874.3
5.57959 54482.5
5.5949 53424.2
5.61022 52548.7
5.62553 51888.3
5.64085 51255.8
5.65617 50746.6
5.67148 50328.1
5.6868 50005.7
5.70212 49728.8
5.71743 49516.5
5.73275 49472.5
5.74807 49520.3
5.76338 49714.4
5.7787 50045.7
5.79401 50504.5
5.80933 51129.5
5.82465 51831.2
5.83996 52616
5.85528 53427.6
5.8706 54295.1
5.88591 55136.8
5.90123 55908.4
5.91655 56634.7
5.93186 57268.4
5.94718 57770.6
5.96249 58082.3
5.97781 58313
5.99313 58381.7
6.00844 58361.2
6.02376 58170.2
6.03908 57931.5
6.05439 57676.4
6.06971 57410.6
6.08503 57144
6.10034 56883.1
6.11566 56698.2
6.13097 56509.4
6.14629 56393.1
6.16161 56310.3
6.17692 56313
6.19224 56399.9
6.20756 56511
6.22287 56716.6
6.23819 56985.5
6.25351 57279.9
6.26882 57539.6
6.28414 57678.7
6.29945 57676.2
6.31477 57442.7
6.33009 57044.8
6.3454 56471.5
6.36072 55786.1
6.37604 55060.3
6.39135 54343.8
6.40667 53698.3
6.42199 53127.1
6.4373 52634.2
6.45262 52232
6.46793 51960.7
6.48325 51750.3
6.49857 51621.2
6.51388 51514.3
6.5292 51449.2
6.54452 51382.6
6.55983 51306.2
6.57515 51268.8
6.59046 51256.8
6.60578 51342.4
6.6211 51489.1
6.63641 51687.8
6.65173 51871
6.66705 52128.6
6.68236 52436.5
6.69768 52821.2
6.713 53258.5
6.72831 53726.7
6.74363 54213.1
6.75894 54727.3
6.77426 55259.3
6.78958 55812.8
6.80489 56363.4
6.82021 56868.4
6.83553 57287.8
6.85084 57603.2
6.86616 57833.5
6.88148 57954.5
6.89679 57997.8
6.91211 57912.9
6.92742 57735.1
6.94274 57515
6.95806 57238.8
6.97337 56945.1
6.98869 56606.5
7.00401 56256.3
7.01932 55921.9
7.03464 55568.3
7.04996 55235.1
7.06527 54928.8
7.08059 54661.2
7.0959 54372.1
7.11122 54067.8
7.12654 53779.7
7.14185 53499.6
7.15717 53239.4
7.17249 52957
7.1878 52685.5
7.20312 52431.5
7.21844 52198
7.23375 51962
7.24907 51754.2
7.26438 51576.7
7.2797 51403.7
7.29502 51187.6
7.31033 50940.6
7.32565 50699.4
7.34097 50486.6
7.35628 50296.7
7.3716 50117.9
7.38692 50000.9
7.40223 49924.1
7.41755 49935
7.43286 49986.8
7.44818 50085.6
7.4635 50212
7.47881 50385.3
7.49413 50607.4
7.50945 50808.3
7.52476 50965.2
7.54008 51040.6
7.55539 51053.4
7.57071 50976.9
7.58603 50818.4
7.60134 50597.7
7.61666 50317
7.63198 50012.2
7.64729 49705.3
7.66261 49399.5
7.67793 49131
7.69324 48990.3
7.70856 48983.9
7.72387 49098.7
7.73919 49332.2
7.75451 49643.5
7.76982 50000.9
7.78514 50367.8
7.80046 50691.3
7.81577 50906
7.83109 50967.5
7.84641 50908.1
7.86172 50702.6
7.87704 50375.2
7.89235 49925.7
7.90767 49445.4
7.92299 48935.4
7.9383 48464.1
7.95362 48017
7.96894 47608.2
7.98425 47183.8
7.99957 46808.8
8.01489 46489.7
8.0302 46196.3
8.04552 45893.5
8.06083 45635
8.07615 45421.2
8.09147 45268.7
8.10678 45183
8.1221 45140.9
8.13742 45164.3
8.15273 45218.9
8.16805 45343.3
8.18337 45504.4
8.19868 45717.2
8.214 45954.5
8.22931 46211.2
8.24463 46441.7
8.25995 46608.7
8.27526 46726.1
8.29058 46750.6
8.3059 46740.2
8.32121 46679.6
8.33653 46599.8
8.35185 46466.5
8.36716 46276.7
8.38248 46093.2
8.39779 45947.3
8.41311 45800.5
8.42843 45668.2
8.44374 45556.7
8.45906 45459.2
8.47438 45345.8
8.48969 45217.4
8.50501 45096.6
8.52032 44980.5
8.53564 44867
8.55096 44755
8.56627 44642.2
8.58159 44534.3
8.59691 44432.5
8.61222 44378.5
8.62754 44335.3
8.64286 44352.1
8.65817 44373
8.67349 44458.6
8.6888 44590.9
8.70412 44840.5
8.71944 45205.9
8.73475 45705.5
8.75007 46290.2
8.76539 46968.4
8.7807 47750.8
8.79602 48495.6
8.81134 49184
8.82665 49725.6
8.84197 50179.6
8.85728 50455.9
8.8726 50603.9
8.88792 50629.1
8.90323 50611.9
8.91855 50618.1
8.93387 50719.3
8.94918 50891.1
8.9645 51080.3
8.97982 51219.9
8.99513 51262.1
9.01045 51213.2
9.02576 50970.6
9.04108 50533.5
9.0564 49929.7
9.07171 49214.7
9.08703 48459.8
9.10235 47669.5
9.11766 46918.5
9.13298 46205.4
9.1483 45589.3
9.16361 45060.6
9.17893 44615.8
9.19424 44229.8
9.20956 43873.7
9.22488 43529.4
9.24019 43238.7
9.25551 42987.6
9.27083 42770.8
9.28614 42537.3
9.30146 42339.4
9.31678 42169
9.33209 42026.5
9.34741 41902.4
9.36272 41813.2
9.37804 41739.1
9.39336 41715.6
9.40867 41710.6
9.42399 41730.8
9.43931 41772.9
9.45462 41810.6
9.46994 41875.6
9.48525 41965
9.50057 42109.8
9.51589 42273.8
9.5312 42406.6
9.54652 42496.8
9.56184 42539.3
9.57715 42495.5
9.59247 42356.3
9.60779 42129
9.6231 41871.6
9.63842 41591.3
9.65373 41313.8
9.66905 41060.5
9.68437 40855.4
9.69968 40707.3
9.715 40609.6
9.73032 40577.3
9.74563 40567.5
9.76095 40574.5
9.77627 40594.5
9.79158 40659.6
9.8069 40750.8
9.82221 40837.6
9.83753 40899.7
9.85285 40954.2
9.86816 40994.5
9.88348 41044.5
9.8988 41129.7
9.91411 41236.3
9.92943 41390.6
9.94475 41539.4
9.96006 41715.4
9.97538 41903.4
9.99069 42111.8
10.006 42295.2
10.0213 42504.1
10.0366 42708
10.052 42946.4
10.0673 43193.7
10.0826 43429.2
10.0979 43686.4
10.1132 43908.5
10.1285 44203.3
10.1439 44531.8
10.1592 44893.2
10.1745 45171
10.1898 45360.4
10.2051 45479.8
10.2204 45531.3
10.2358 45553.6
10.2511 45569.5
10.2664 45596.9
10.2817 45688.2
10.297 45842.8
10.3123 46094.9
10.3277 46316.2
10.343 46509.3
10.3583 46567.9
10.3736 46533.6
10.3889 46395.9
10.4042 46192.2
10.4196 45927.5
10.4349 45641.2
10.4502 45322.2
10.4655 45045.1
10.4808 44822
10.4961 44657.2
10.5115 44560.8
10.5268 44505.8
10.5421 44511.9
10.5574 44556.2
10.5727 44640
10.588 44716.7
10.6033 44765.6
10.6187 44769.9
10.634 44746.7
10.6493 44665
10.6646 44530
10.6799 44353
10.6952 44167.9
10.7106 44005.9
10.7259 43835.4
10.7412 43714.5
10.7565 43652.5
10.7718 43631.9
10.7871 43618.2
10.8025 43621.9
10.8178 43654.1
10.8331 43684
10.8484 43661.2
10.8637 43522.6
10.879 43325.4
10.8944 43085
10.9097 42827.2
10.925 42550.2
10.9403 42234
10.9556 41924.8
10.9709 41652.7
10.9863 41417.9
11.0016 41214.9
11.0169 41004
11.0322 40820.3
11.0475 40633.9
11.0628 40418
11.0782 40186.7
11.0935 39955
11.1088 39728
11.1241 39500.6
11.1394 39304.1
11.1547 39153.9
11.1701 39017.8
11.1854 38874.4
11.2007 38723.9
11.216 38561
11.2313 38437.6
11.2466 38305.6
11.262 38195.2
11.2773 38106.2
11.2926 38046.4
11.3079 37988.2
11.3232 37966.8
11.3385 37931.5
11.3538 37901
11.3692 37851.9
11.3845 37799.1
11.3998 37770.7
11.4151 37728.8
11.4304 37706.1
11.4457 37694.1
11.4611 37696.4
11.4764 37705.4
11.4917 37736
11.507 37776
11.5223 37836.5
11.5376 37877.8
11.553 37915.3
11.5683 37960.1
11.5836 37989.5
11.5989 37983.6
11.6142 37948.6
11.6295 37901
11.6449 37833
11.6602 37774.9
11.6755 37722.7
11.6908 37655.8
11.7061 37604.9
11.7214 37562.6
11.7368 37569
11.7521 37601
11.7674 37660
11.7827 37701.5
11.798 37745.2
11.8133 37765.8
11.8287 37767.8
11.844 37735.8
11.8593 37712.3
11.8746 37691.6
11.8899 37703.6
11.9052 37683.4
11.9206 37659.2
11.9359 37639.3
11.9512 37663.6
11.9665 37680.9
11.9818 37702.8
11.9971 37728.8
12.0125 37744.3
12.0278 37729.6
12.0431 37716.7
12.0584 37682.3
12.0737 37626.7
12.089 37556.7
12.1044 37503.8
12.1197 37464.9
12.135 37454.4
12.1503 37447.3
12.1656 37421.2
12.1809 37379.9
12.1962 37360.7
12.2116 37336.9
12.2269 37310.6
12.2422 37307
12.2575 37303.6
12.2728 37272.6
12.2881 37228.2
12.3035 37213.1
12.3188 37211.9
12.3341 37184.3
12.3494 37147.7
12.3647 37127.4
12.38 37103.4
12.3954 37060.4
12.4107 37041.6
12.426 37028.8
12.4413 37001.3
12.4566 36990.9
12.4719 36958.2
12.4873 36899.4
12.5026 36836
12.5179 36790.9
12.5332 36715.5
12.5485 36669
12.5638 36665.1
12.5792 36698.3
12.5945 36705.8
12.6098 36683.5
12.6251 36684.2
12.6404 36706.4
12.6557 36716.9
12.6711 36750.6
12.6864 36769.8
12.7017 36744.9
12.717 36718.2
12.7323 36727.5
12.7476 36745.6
12.763 36802.2
12.7783 36908.4
12.7936 37024.9
12.8089 37141.4
12.8242 37228.4
12.8395 37289.2
12.8549 37315.1
12.8702 37291.3
12.8855 37224.6
12.9008 37164.6
12.9161 37104.2
12.9314 37022
12.9467 36936.4
12.9621 36882
12.9774 36820.5
12.9927 36759.8
13.008 36716.3
13.0233 36691.8
13.0386 36679.7
13.054 36687
13.0693 36694.5
13.0846 36675.9
13.0999 36682.6
13.1152 36687.8
13.1305 36671.2
13.1459 36633.5
13.1612 36609.7
13.1765 36590.8
13.1918 36586.8
13.2071 36582.8
13.2224 36588.7
13.2378 36597
13.2531 36614.9
13.2684 36642.9
13.2837 36658
13.299 36682.6
13.3143 36712.9
13.3297 36754.8
13.345 36788.4
13.3603 36859.9
13.3756 36975.8
13.3909 37113
13.4062 37283.5
13.4216 37494.6
13.4369 37716.2
13.4522 37930.2
13.4675 38128.3
13.4828 38288.6
13.4981 38415.7
13.5135 38506.1
13.5288 38544.1
13.5441 38603.8
13.5594 38694.8
13.5747 38799.6
13.59 38840.8
13.6054 38836.6
13.6207 38768.6
13.636 38631.5
13.6513 38451.9
13.6666 38247.6
13.6819 38049
13.6973 37834.5
13.7126 37662.3
13.7279 37528.9
13.7432 37404.8
13.7585 37280.8
13.7738 37185.7
13.7891 37080.2
13.8045 36989.8
13.8198 36902.5
13.8351 36833.1
13.8504 36799.4
13.8657 36796.7
13.881 36776.1
13.8964 36775.4
13.9117 36797.1
13.927 36796
13.9423 36807.5
13.9576 36839.7
13.9729 36846.1
13.9883 36803.1
14.0036 36714.7
14.0189 36618.8
14.0342 36463.8
14.0495 36330.3
14.0648 36192.5
14.0802 36062.1
14.0955 35926.5
14.1108 35787.5
14.1261 35648.5
14.1414 35574.3
14.1567 35483.6
14.1721 35381.7
14.1874 35324.3
14.2027 35275.9
14.218 35217.7
14.2333 35181.9
14.2486 35147.9
14.264 35110.9
14.2793 35089
14.2946 35064.6
14.3099 35028.6
14.3252 34987.6
14.3405 34947.6
14.3559 34910.2
14.3712 34888.2
14.3865 34911.1
14.4018 34921.4
14.4171 34913.5
14.4324 34862.4
14.4478 34836.7
14.4631 34805.6
14.4784 34810.4
14.4937 34820.7
14.509 34826.9
14.5243 34828.3
14.5397 34815.9
14.555 34816.3
14.5703 34842.2
14.5856 34834.5
14.6009 34833.5
14.6162 34836.7
14.6315 34807.8
14.6469 34759.5
14.6622 34721.4
14.6775 34667.4
14.6928 34605.1
14.7081 34535.4
14.7234 34482
14.7388 34441
14.7541 34417.1
14.7694 34362.3
14.7847 34308.4
14.8 34248.8
14.8153 34202.5
14.8307 34175.2
14.846 34150.3
14.8613 34113.7
14.8766 34068.1
14.8919 34010.2
14.9072 33949.9
14.9226 33886.2
14.9379 33847.3
14.9532 33809.5
14.9685 33825.1
14.9838 33828.8
14.9991 33834.8
15.0145 33813.9
15.0298 33785.6
15.0451 33776.6
15.0604 33774.3
15.0757 33747.8
15.091 33731.3
15.1064 33751.1
15.1217 33760
15.137 33732.6
15.1523 33720
15.1676 33750.6
15.1829 33789.3
15.1983 33824.7
15.2136 33848.3
15.2289 33872.1
15.2442 33921.3
15.2595 33973.8
15.2748 33999.9
15.2902 34029.6
15.3055 34083.6
15.3208 34131.8
15.3361 34177.3
15.3514 34222.4
15.3667 34251.3
15.382 34265.3
15.3974 34291
15.4127 34324.3
15.428 34294
15.4433 34245.7
15.4586 34193.1
15.4739 34118.2
15.4893 34059.6
15.5046 34039.6
15.5199 34030.3
15.5352 34003.7
15.5505 33956.7
15.5658 33940.3
15.5812 33920.6
15.5965 33903.6
15.6118 33887.3
15.6271 33854.3
15.6424 33820.9
15.6577 33781.5
15.6731 33752
15.6884 33723.6
15.7037 33732.2
15.719 33729.2
15.7343 33703.2
15.7496 33654.9
15.765 33612.1
15.7803 33596.1
15.7956 33552.7
15.8109 33508.5
15.8262 33456.9
15.8415 33396.5
15.8569 33331.8
15.8722 33305.6
15.8875 33277.6
15.9028 33213.2
15.9181 33184.3
15.9334 33141.8
15.9488 33078.8
15.9641 33042.7
15.9794 33029.4
15.9947 33020.2
16.01 32964.5
16.0253 32915.7
16.0407 32879.9
16.056 32832.9
16.0713 32826.7
16.0866 32817.9
16.1019 32823.2
16.1172 32817.2
16.1326 32811.2
16.1479 32809.5
16.1632 32821.3
16.1785 32813.3
16.1938 32798
16.2091 32786.3
16.2244 32782.5
16.2398 32765.2
16.2551 32758.4
16.2704 32755.9
16.2857 32732.8
16.301 32703.3
16.3163 32684.9
16.3317 32700.2
16.347 32721.8
16.3623 32730.2
16.3776 32700.6
16.3929 32665.6
16.4082 32652.3
16.4236 32641.8
16.4389 32621.5
16.4542 32602.5
16.4695 32577
16.4848 32541.4
16.5001 32521.6
16.5155 32486.1
16.5308 32447.2
16.5461 32422.9
16.5614 32399.1
16.5767 32367.1
16.592 32321.7
16.6074 32266.9
16.6227 32245
16.638 32234.5
16.6533 32230.7
16.6686 32219.7
16.6839 32187.8
16.6993 32154.1
16.7146 32091.9
16.7299 32052
16.7452 32042.6
16.7605 32033.2
16.7758 32016.2
16.7912 31985.2
16.8065 31971.5
16.8218 31955.3
16.8371 31955.9
16.8524 31950.3
16.8677 31945
16.8831 31929.6
16.8984 31909.2
16.9137 31866.4
16.929 31837
16.9443 31840.5
16.9596 31846.3
16.9749 31847.1
16.9903 31801.5
17.0056 31766.8
17.0209 31744.5
17.0362 31688
17.0515 31647.3
17.0668 31616.3
17.0822 31605.3
17.0975 31604.8
17.1128 31585
17.1281 31564.3
17.1434 31544.5
17.1587 31532.8
17.1741 31534.2
17.1894 31506.7
17.2047 31484.1
17.22 31454.2
17.2353 31434.4
17.2506 31414.4
17.266 31391.7
17.2813 31379.6
17.2966 31381.1
17.3119 31354.7
17.3272 31321.1
17.3425 31333.5
17.3579 31312.2
17.3732 31254.3
17.3885 31255.3
17.4038 31279.1
17.4191 31276.9
17.4344 31293.3
17.4498 31287.2
17.4651 31296.5
17.4804 31306.3
17.4957 31295.4
17.511 31281.4
17.5263 31255.4
17.5417 31232.9
17.557 31227.7
17.5723 31240.6
17.5876 31224.7
17.6029 31221.6
17.6182 31238.6
17.6336 31260
17.6489 31280.8
17.6642 31290.9
17.6795 31296.9
17.6948 31322.4
17.7101 31313.9
17.7255 31323.3
17.7408 31317.8
17.7561 31269.9
17.7714 31260.6
17.7867 31248.5
17.802 31238.1
17.8173 31201.2
17.8327 31160.4
17.848 31139.7
17.8633 31156.7
17.8786 31153.6
17.8939 31124.9
17.9092 31111.5
17.9246 31114
17.9399 31107.7
17.9552 31080.7
17.9705 31084.9
17.9858 31080.3
18.0011 31048
18.0165 31053.6
18.0318 31064
18.0471 31044.3
18.0624 31028.8
18.0777 31001.6
18.093 30981.7
18.1084 30985.3
18.1237 30973.2
18.139 30940.5
18.1543 30926.8
18.1696 30939.8
18.1849 30915.8
18.2003 30899.8
18.2156 30907.6
18.2309 30898.8
18.2462 30890.9
18.2615 30920.5
18.2768 30909.8
18.2922 30880.9
18.3075 30898.3
18.3228 30941
18.3381 30972.6
18.3534 30984.7
18.3687 31014.5
18.3841 31037.8
18.3994 31054.5
18.4147 31063.5
18.43 31058
18.4453 31031
18.4606 30997.2
18.476 31019.3
18.4913 30991.3
18.5066 30923.5
18.5219 30897.4
18.5372 30861.3
18.5525 30841.5
18.5679 30823.7
18.5832 30787.4
18.5985 30810.1
18.6138 30810.7
18.6291 30775.2
18.6444 30725
18.6597 30718.6
18.6751 30719.2
18.6904 30702.6
18.7057 30680.4
18.721 30634.6
18.7363 30566.5
18.7516 30567.6
18.767 30597
18.7823 30574.5
18.7976 30510.1
18.8129 30513.1
18.8282 30540.7
18.8435 30521.3
18.8589 30456.8
18.8742 30405.1
18.8895 30347
18.9048 30305.4
18.9201 30263.2
18.9354 30228.5
18.9508 30234
18.9661 30231.8
18.9814 30217.8
18.9967 30170.2
19.012 30105.5
19.0273 30082.6
19.0427 30097.2
19.058 30088.1
19.0733 30055.8
19.0886 30002.6
19.1039 30023.9
19.1192 30036.5
19.1346 30034.7
19.1499 30014.5
19.1652 30004.8
19.1805 30013
19.1958 30029.7
19.2111 30021
19.2265 30006.7
19.2418 30001.7
19.2571 29966
19.2724 29909.8
19.2877 29882.1
19.303 29864.9
19.3184 29830.7
19.3337 29787.5
19.349 29761.7
19.3643 29736.1
19.3796 29733.3
19.3949 29728.7
19.4102 29717.6
19.4256 29724.4
19.4409 29699.3
19.4562 29674.4
19.4715 29633.8
19.4868 29599.7
19.5021 29562.2
19.5175 29567
19.5328 29576.7
19.5481 29545.7
19.5634 29536.4
19.5787 29539.7
19.594 29490
19.6094 29486.6
19.6247 29496.8
19.64 29488.6
19.6553 29505.4
19.6706 29484.8
19.6859 29462.3
19.7013 29458.1
19.7166 29475.6
19.7319 29449.7
19.7472 29385.1
19.7625 29355.5
19.7778 29327.4
19.7932 29329.1
19.8085 29332.9
19.8238 29322
19.8391 29297
19.8544 29278.5
19.8697 29232.9
19.8851 29254.9
19.9004 29288
19.9157 29248.2
19.931 29211.8
19.9463 29224.3
19.9616 29314.2
19.977 29321.7
19.9923 29234.7
20.0076 29193
20.0229 29176.3
20.0382 29162.5
20.0535 29134
20.0689 29128.7
20.0842 29109.6
20.0995 29089.2
20.1148 29077.7
20.1301 29075.5
20.1454 29086.5
20.1608 29104.2
20.1761 29100.2
20.1914 29102.7
20.2067 29068
20.222 29048.2
20.2373 29079.7
20.2526 29073
20.268 29050.9
20.2833 29033.6
20.2986 29043.4
20.3139 29072.8
20.3292 29103.2
20.3445 29098
20.3599 29091.8
20.3752 29059.4
20.3905 29065.5
20.4058 29073.8
20.4211 29037.5
20.4364 29045.8
20.4518 29047.9
20.4671 29057.3
20.4824 29063.9
20.4977 29057.9
20.513 29010.1
20.5283 29014.3
20.5437 29029.5
20.559 29021.2
20.5743 28981.6
20.5896 29003.5
20.6049 29034.4
20.6202 29041.2
20.6356 29023.6
20.6509 29021.6
20.6662 29024.3
20.6815 28974.2
20.6968 28957.6
20.7121 28959.9
20.7275 28976.4
20.7428 28972.2
20.7581 28957.6
20.7734 28912.7
20.7887 28905.7
20.804 28895.9
20.8194 28899.2
20.8347 28907.1
20.85 28927.4
20.8653 28879.5
20.8806 28824.3
20.8959 28795.1
20.9113 28798.7
20.9266 28838.8
20.9419 28874.4
20.9572 28887
20.9725 28888.2
20.9878 28857
21.0031 28787
21.0185 28814.2
21.0338 28831.2
21.0491 28817.6
21.0644 28808.1
21.0797 28796.8
21.095 28813.5
21.1104 28830
21.1257 28871.4
21.141 28844.6
21.1563 28797.2
21.1716 28797.7
21.1869 28790.5
21.2023 28779.3
21.2176 28759.7
21.2329 28740.9
21.2482 28773.5
21.2635 28779.5
21.2788 28743.5
21.2942 28719.7
21.3095 28685.2
21.3248 28722.7
21.3401 28782.1
21.3554 28784
21.3707 28718.4
21.3861 28714.9
21.4014 28661.9
21.4167 28643.8
21.432 28692.1
21.4473 28719.7
21.4626 28708.2
21.478 28711
21.4933 28750.7
21.5086 28741.6
21.5239 28725.6
21.5392 28716.2
21.5545 28687.7
21.5699 28660.7
21.5852 28677.8
21.6005 28685
21.6158 28660.3
21.6311 28616.9
21.6464 28658.3
21.6618 28659.5
21.6771 28665.1
21.6924 28692.7
21.7077 28694.1
21.723 28676.1
21.7383 28700.9
21.7537 28733.8
21.769 28749.5
21.7843 28726.3
21.7996 28690.9
21.8149 28722.7
21.8302 28702.4
21.8455 28661
21.8609 28634.9
21.8762 28627.8
21.8915 28693.5
21.9068 28736
21.9221 28743.4
21.9374 28746.3
21.9528 28743.7
21.9681 28704.9
21.9834 28718.4
21.9987 28712.1
22.014 28681.6
22.0293 28723.2
22.0447 28785
22.06 28812.1
22.0753 28805.6
22.0906 28811
22.1059 28825.9
22.1212 28828
22.1366 28817.4
22.1519 28842.4
22.1672 28843.9
22.1825 28861
22.1978 28890.4
22.2131 28892.3
22.2285 28910.7
22.2438 28914.2
22.2591 28870.6
22.2744 28809
22.2897 28784.5
22.305 28847.8
22.3204 28895.2
22.3357 28918.2
22.351 28953.1
22.3663 28958.1
22.3816 28969.4
22.3969 28980.6
22.4123 28923.3
22.4276 28917.2
22.4429 28893.7
22.4582 28874.7
22.4735 28917.7
22.4888 28969.9
22.5042 28982.7
22.5195 28980.2
22.5348 28930
22.5501 28966.9
22.5654 28977.7
22.5807 28968.7
22.596 28953.6
22.6114 28990.2
22.6267 28977.6
22.642 28984.4
22.6573 29000.2
22.6726 29007.1
22.6879 29008.1
22.7033 29031.7
22.7186 29033
22.7339 28997.9
22.7492 29017.2
22.7645 29049.9
22.7798 29031.1
22.7952 29020.2
22.8105 29023.2
22.8258 28970.7
22.8411 28956
22.8564 28980.9
22.8717 29024.9
22.8871 28997.1
22.9024 29024.7
22.9177 29047.5
22.933 29067.2
22.9483 29065.3
22.9636 29096.8
22.979 29086.3
22.9943 29105.8
