# xPDFsuite Configuration #
[PDF]
wavelength = 0.1
dataformat = QA
inputfile = B3_Bronze-3nm_ss_29.chi
backgroundfile = B3_Li-bkg_ss.chi
mode = xray
bgscale = 0.98705
composition = Ti O2
outputtype = iq
qmaxinst = 23.0
qmin = 0.1
qmax = 23.0
rmax = 30.0
rmin = 0.0
rstep = 0.01
rpoly = 0.9

[Misc]
inputdir = E:/Beamtime/PETRA-III_September-2019/BeamData/processed/Run1/B3/chi/chi_w_sigmas/chi_scaled
savedir = E:/Beamtime/PETRA-III_September-2019/BeamData/processed/Run1/B3
backgroundfilefull = E:/Beamtime/PETRA-III_September-2019/BeamData/processed/Run1/B3/chi/chi_w_sigmas/chi_scaled/B3_Li-bkg_ss.chi

#### start data
#S 1
#L Q($\AA^{-1}$)  intensity(a.u.)
0.111649 0
0.126965 0
0.142282 0
0.157598 0
0.172914 0
0.188231 0
0.203547 0
0.218864 0
0.23418 0
0.249496 0
0.264813 0
0.280129 0
0.295445 0
0.310762 0
0.326078 0
0.341394 0
0.356711 0
0.372027 0
0.387343 0
0.40266 0
0.417976 0
0.433292 0
0.448609 0
0.463925 0
0.479241 0
0.494558 0
0.509874 0
0.525191 0
0.540507 0
0.555823 0
0.57114 0
0.586456 0
0.601772 0
0.617089 0
0.632405 0
0.647721 0
0.663038 0
0.678354 0
0.69367 0
0.708987 0
0.724303 0
0.739619 0
0.754936 0
0.770252 0
0.785568 0
0.800885 0
0.816201 0
0.831518 0
0.846834 0
0.86215 1.4876
0.877467 106804
0.892783 107318
0.908099 107936
0.923416 109211
0.938732 111154
0.954048 112841
0.969365 113781
0.984681 113596
0.999997 111730
1.01531 108521
1.03063 103143
1.04595 96694
1.06126 88929.3
1.07658 80065.3
1.0919 71333.3
1.10721 61608.8
1.12253 52800.9
1.13784 44011.5
1.15316 36184.1
1.16848 29436
1.18379 23277.8
1.19911 18298.6
1.21443 13772.7
1.22974 10166.5
1.24506 7336.59
1.26038 5195.84
1.27569 3812.3
1.29101 2955.87
1.30632 2765.99
1.32164 3131.29
1.33696 4002.05
1.35227 5261.6
1.36759 6989.87
1.38291 8741.97
1.39822 10877.4
1.41354 12764.1
1.42886 14555.5
1.44417 16227.6
1.45949 17873
1.4748 19629.1
1.49012 21599.7
1.50544 24043.1
1.52075 27142.1
1.53607 31176.2
1.55139 36653
1.5667 43045.9
1.58202 51452.6
1.59733 60653.4
1.61265 70873.9
1.62797 81595.3
1.64328 91749.6
1.6586 101817
1.67392 110191
1.68923 117074
1.70455 122079
1.71987 125361
1.73518 127191
1.7505 127823
1.76581 128148
1.78113 127894
1.79645 127722
1.81176 127343
1.82708 126754
1.8424 125667
1.85771 124258
1.87303 122241
1.88835 119790
1.90366 116983
1.91898 113956
1.93429 110998
1.94961 108273
1.96493 105969
1.98024 104010
1.99556 102095
2.01088 100274
2.02619 97835.7
2.04151 94861
2.05683 91108.7
2.07214 86967.9
2.08746 82662.4
2.10277 78238.8
2.11809 74221.9
2.13341 70444.5
2.14872 67269.1
2.16404 64598.5
2.17936 62384.1
2.19467 60636
2.20999 59213.3
2.22531 58161
2.24062 57244.6
2.25594 56443.8
2.27125 55633
2.28657 54805.5
2.30189 54002.6
2.3172 53167.2
2.33252 52457.7
2.34784 51751.3
2.36315 51255.2
2.37847 50893.7
2.39379 50569.1
2.4091 50540.8
2.42442 50531.3
2.43973 50824.2
2.45505 51131.9
2.47037 51424.5
2.48568 51742.5
2.501 51958
2.51632 52218.7
2.53163 52398.4
2.54695 52673.1
2.56226 53030.7
2.57758 53384.5
2.5929 53673.6
2.60821 54047.4
2.62353 54216.7
2.63885 54339.1
2.65416 54352.7
2.66948 54454.7
2.6848 54685.2
2.70011 55063.5
2.71543 55962.2
2.73074 57122.4
2.74606 58844.9
2.76138 61105.9
2.77669 64031.6
2.79201 67798.7
2.80733 72205.8
2.82264 77799.2
2.83796 84489.8
2.85328 92417.4
2.86859 101903
2.88391 112227
2.89922 124001
2.91454 136049
2.92986 148137
2.94517 159600
2.96049 169620
2.97581 178185
2.99112 184368
3.00644 188290
3.02176 189635
3.03707 188723
3.05239 185716
3.0677 181235
3.08302 175608
3.09834 169354
3.11365 162949
3.12897 156530
3.14429 150327
3.1596 144170
3.17492 138470
3.19024 132631
3.20555 127191
3.22087 121752
3.23618 116305
3.2515 110937
3.26682 105505
3.28213 100317
3.29745 95148.9
3.31277 90414
3.32808 86012.7
3.3434 81941.8
3.35872 78555.3
3.37403 75544.7
3.38935 73223.4
3.40466 71389.3
3.41998 70014.9
3.4353 69041.9
3.45061 68368.5
3.46593 68100.2
3.48125 67954.3
3.49656 67987.5
3.51188 68027.1
3.52719 68143.7
3.54251 68311.3
3.55783 68299.1
3.57314 68183.9
3.58846 67864.8
3.60378 67511.6
3.61909 67108
3.63441 66712.6
3.64973 66495.2
3.66504 66417.9
3.68036 66606.3
3.69567 67124.2
3.71099 68027.9
3.72631 69300.1
3.74162 70863.1
3.75694 72667.9
3.77226 74566.7
3.78757 76346.2
3.80289 77910
3.81821 79134.3
3.83352 79864.4
3.84884 80118.8
3.86415 79866.3
3.87947 79150.3
3.89479 78131.3
3.9101 76870.2
3.92542 75528.1
3.94074 74243.1
3.95605 73083.9
3.97137 72195.5
3.98669 71462.9
4.002 71097.9
4.01732 71035.1
4.03263 71256.5
4.04795 71720.1
4.06327 72514.2
4.07858 73562.7
4.0939 74932.5
4.10922 76544.4
4.12453 78377
4.13985 80463.3
4.15517 82618.4
4.17048 84871.7
4.1858 86945.3
4.20111 88889.7
4.21643 90638.4
4.23175 92079.4
4.24706 93276.9
4.26238 94180.5
4.2777 94993
4.29301 95622.6
4.30833 96121.4
4.32365 96482
4.33896 96598.3
4.35428 96474.8
4.36959 95900.1
4.38491 94865.4
4.40023 93289.3
4.41554 91096.9
4.43086 88329.4
4.44618 85129.6
4.46149 81479.9
4.47681 77798
4.49213 74081.4
4.50744 70607.9
4.52276 67438.9
4.53807 64617.9
4.55339 62252.4
4.56871 60217.7
4.58402 58589.5
4.59934 57259.9
4.61466 56229.3
4.62997 55475.7
4.64529 54960.3
4.6606 54697
4.67592 54629.8
4.69124 54762
4.70655 55096.4
4.72187 55567
4.73719 56187.4
4.7525 56883.1
4.76782 57629.5
4.78314 58434
4.79845 59244.8
4.81377 60019.2
4.82908 60772.9
4.8444 61512.6
4.85972 62243.4
4.87503 62937.3
4.89035 63618.5
4.90567 64355.7
4.92098 65179.4
4.9363 66132.4
4.95162 67253.2
4.96693 68548.2
4.98225 70171
4.99756 72248.6
5.01288 74590.1
5.0282 77012.8
5.04351 79476.3
5.05883 81546.6
5.07415 83175
5.08946 84215.4
5.10478 84493.8
5.1201 84344
5.13541 83486.8
5.15073 82465.3
5.16604 81167.6
5.18136 79952.3
5.19668 78914.7
5.21199 78201.1
5.22731 77665.6
5.24263 77327.9
5.25794 76928.4
5.27326 76516
5.28858 76032.8
5.30389 75559.2
5.31921 75149.5
5.33452 74804.7
5.34984 74539.7
5.36516 74244.4
5.38047 73732.9
5.39579 72863.9
5.41111 71605.5
5.42642 69867.7
5.44174 67774.2
5.45706 65215.2
5.47237 62466.2
5.48769 59575.4
5.503 56791.5
5.51832 54357.8
5.53364 52285.6
5.54895 50751.5
5.56427 49673
5.57959 48979.7
5.5949 48612.9
5.61022 48329.2
5.62553 48176.2
5.64085 47980.2
5.65617 47816.5
5.67148 47665.1
5.6868 47566.9
5.70212 47461.6
5.71743 47364
5.73275 47324.9
5.74807 47287.4
5.76338 47309.9
5.7787 47426.8
5.79401 47649
5.80933 48049.2
5.82465 48533
5.83996 49166
5.85528 49881.5
5.8706 50686.9
5.88591 51509
5.90123 52316.8
5.91655 53049.9
5.93186 53715
5.94718 54238.7
5.96249 54567.7
5.97781 54722.7
5.99313 54657.9
6.00844 54387.2
6.02376 53898.5
6.03908 53317.5
6.05439 52654.5
6.06971 51992.9
6.08503 51350.9
6.10034 50736.5
6.11566 50229.2
6.13097 49787.3
6.14629 49443.4
6.16161 49168.9
6.17692 49002.3
6.19224 48955.7
6.20756 49019.3
6.22287 49194.9
6.23819 49465.9
6.25351 49795.4
6.26882 50116.6
6.28414 50401.1
6.29945 50581.2
6.31477 50620.6
6.33009 50526.5
6.3454 50287.4
6.36072 49971
6.37604 49592.6
6.39135 49210.9
6.40667 48900.4
6.42199 48703.3
6.4373 48626.6
6.45262 48637.2
6.46793 48780
6.48325 48988
6.49857 49250.8
6.51388 49559.8
6.5292 49897.4
6.54452 50284.7
6.55983 50680.8
6.57515 51163.5
6.59046 51673.2
6.60578 52209.8
6.6211 52765
6.63641 53324.4
6.65173 53867.8
6.66705 54355.7
6.68236 54798
6.69768 55169.2
6.713 55460.8
6.72831 55647.1
6.74363 55704
6.75894 55677.9
6.77426 55573.9
6.78958 55444.6
6.80489 55253.1
6.82021 54986.5
6.83553 54643.4
6.85084 54235.7
6.86616 53769.5
6.88148 53301
6.89679 52799.3
6.91211 52275.2
6.92742 51761.2
6.94274 51288.1
6.95806 50837.4
6.97337 50417.6
6.98869 50051.2
7.00401 49735.2
7.01932 49486.2
7.03464 49232.5
7.04996 49038.7
7.06527 48885.8
7.08059 48805.6
7.0959 48728.7
7.11122 48678.9
7.12654 48606.5
7.14185 48575.3
7.15717 48548.2
7.17249 48551.7
7.1878 48543.5
7.20312 48574.7
7.21844 48589.9
7.23375 48630
7.24907 48680.8
7.26438 48806.6
7.2797 48935.3
7.29502 49076.9
7.31033 49153.6
7.32565 49204.2
7.34097 49210.7
7.35628 49192.2
7.3716 49105.6
7.38692 48986.8
7.40223 48828
7.41755 48666.4
7.43286 48492.6
7.44818 48283.8
7.4635 48076.6
7.47881 47842.1
7.49413 47630.8
7.50945 47407.8
7.52476 47200.6
7.54008 46935.8
7.55539 46619.5
7.57071 46290.9
7.58603 45960.9
7.60134 45624.9
7.61666 45273
7.63198 44937.5
7.64729 44626
7.66261 44339.2
7.67793 44140.4
7.69324 44045.5
7.70856 44058.9
7.72387 44168.5
7.73919 44372.3
7.75451 44627.8
7.76982 44893.8
7.78514 45142.4
7.80046 45335.6
7.81577 45427.2
7.83109 45401
7.84641 45255.4
7.86172 44977.4
7.87704 44604.9
7.89235 44167.4
7.90767 43728.4
7.92299 43305.7
7.9383 42951.1
7.95362 42670.3
7.96894 42460
7.98425 42298.9
7.99957 42181.4
8.01489 42148.5
8.0302 42133
8.04552 42111.1
8.06083 42086.1
8.07615 42068.2
8.09147 42058.4
8.10678 42047.2
8.1221 42013.1
8.13742 41985.7
8.15273 41985
8.16805 42029.3
8.18337 42060.4
8.19868 42111.1
8.214 42154.3
8.22931 42198.8
8.24463 42221.3
8.25995 42191.5
8.27526 42102.4
8.29058 41970.6
8.3059 41850.7
8.32121 41695.5
8.33653 41529.6
8.35185 41336.6
8.36716 41126
8.38248 40947.1
8.39779 40803.2
8.41311 40697
8.42843 40625.9
8.44374 40597.1
8.45906 40607.3
8.47438 40636.8
8.48969 40690.1
8.50501 40796.5
8.52032 40913.4
8.53564 41050.8
8.55096 41220.9
8.56627 41391.4
8.58159 41577.1
8.59691 41768.5
8.61222 41984.9
8.62754 42173.4
8.64286 42373
8.65817 42567.5
8.67349 42740
8.6888 42897.5
8.70412 43068.7
8.71944 43285
8.73475 43552
8.75007 43887.9
8.76539 44286.9
8.7807 44720.9
8.79602 45115.8
8.81134 45434.6
8.82665 45643.5
8.84197 45726.1
8.85728 45657.1
8.8726 45473.7
8.88792 45281.5
8.90323 45124.9
8.91855 45069.1
8.93387 45111.6
8.94918 45279.1
8.9645 45508.2
8.97982 45734
8.99513 45894.2
9.01045 45963.1
9.02576 45870.2
9.04108 45609.5
9.0564 45161.1
9.07171 44589.5
9.08703 43947.7
9.10235 43297.9
9.11766 42676.4
9.13298 42126.6
9.1483 41645
9.16361 41261.4
9.17893 40986.4
9.19424 40763.1
9.20956 40572.3
9.22488 40371.8
9.24019 40209.6
9.25551 40033.2
9.27083 39880.9
9.28614 39714
9.30146 39557.9
9.31678 39367.9
9.33209 39187.2
9.34741 39006.8
9.36272 38840.2
9.37804 38663
9.39336 38516.1
9.40867 38385.2
9.42399 38295.4
9.43931 38274.4
9.45462 38284
9.46994 38351.1
9.48525 38441.8
9.50057 38588
9.51589 38768.2
9.5312 38953.3
9.54652 39100.3
9.56184 39212.3
9.57715 39238.7
9.59247 39179.6
9.60779 39054.5
9.6231 38881.5
9.63842 38693.5
9.65373 38506.4
9.66905 38320.5
9.68437 38180.4
9.69968 38085.6
9.715 38049.5
9.73032 38080.1
9.74563 38114.1
9.76095 38150.9
9.77627 38187.6
9.79158 38261.4
9.8069 38331.7
9.82221 38395.9
9.83753 38441.5
9.85285 38468.3
9.86816 38476.4
9.88348 38468.2
9.8988 38465.4
9.91411 38465
9.92943 38526.9
9.94475 38615.2
9.96006 38743.5
9.97538 38894.1
9.99069 39064.4
10.006 39233.6
10.0213 39412.5
10.0366 39574.3
10.052 39772.4
10.0673 39956.1
10.0826 40130.3
10.0979 40321.7
10.1132 40511
10.1285 40765.7
10.1439 41052.7
10.1592 41342.1
10.1745 41524.6
10.1898 41632.1
10.2051 41654.9
10.2204 41632.9
10.2358 41567.6
10.2511 41510.4
10.2664 41473.7
10.2817 41538.8
10.297 41668.9
10.3123 41892.7
10.3277 42069.7
10.343 42192
10.3583 42218.6
10.3736 42168.7
10.3889 42025.8
10.4042 41808.7
10.4196 41522.9
10.4349 41216.1
10.4502 40900.7
10.4655 40641.8
10.4808 40438.1
10.4961 40305.3
10.5115 40205.7
10.5268 40171.6
10.5421 40190.9
10.5574 40239.1
10.5727 40283
10.588 40319.9
10.6033 40336.2
10.6187 40336.2
10.634 40286.1
10.6493 40175.6
10.6646 40021.2
10.6799 39833.8
10.6952 39617.2
10.7106 39420.8
10.7259 39247.6
10.7412 39099
10.7565 38990.9
10.7718 38943.2
10.7871 38957.3
10.8025 38969.8
10.8178 38973.9
10.8331 38963.5
10.8484 38926.4
10.8637 38801.6
10.879 38615.7
10.8944 38370
10.9097 38120.3
10.925 37874.8
10.9403 37622.6
10.9556 37371.5
10.9709 37184.9
10.9863 37000.2
11.0016 36854.1
11.0169 36699.8
11.0322 36550.6
11.0475 36404.5
11.0628 36261
11.0782 36122.2
11.0935 35959.7
11.1088 35790.1
11.1241 35642.4
11.1394 35529.3
11.1547 35439.9
11.1701 35361.4
11.1854 35302
11.2007 35225.6
11.216 35137
11.2313 35073
11.2466 35023.4
11.262 34989.3
11.2773 34943.8
11.2926 34931
11.3079 34910.5
11.3232 34916.4
11.3385 34887
11.3538 34877.5
11.3692 34864.6
11.3845 34855.1
11.3998 34848.4
11.4151 34835.5
11.4304 34819.7
11.4457 34826.5
11.4611 34856.5
11.4764 34885.3
11.4917 34915
11.507 34933.8
11.5223 34964.8
11.5376 34958.7
11.553 34963.6
11.5683 34993.7
11.5836 34972.9
11.5989 34954.6
11.6142 34930.4
11.6295 34880.3
11.6449 34797.1
11.6602 34702.4
11.6755 34630.4
11.6908 34544.6
11.7061 34491.1
11.7214 34431.4
11.7368 34396.2
11.7521 34398.8
11.7674 34451.1
11.7827 34476.1
11.798 34505.5
11.8133 34490.1
11.8287 34452.8
11.844 34411.8
11.8593 34333.9
11.8746 34268.2
11.8899 34233.9
11.9052 34191.6
11.9206 34157.3
11.9359 34121
11.9512 34081
11.9665 34051.1
11.9818 34027.5
11.9971 34018.8
12.0125 34003.1
12.0278 33975.2
12.0431 33952.4
12.0584 33920
12.0737 33899.6
12.089 33873.5
12.1044 33818.9
12.1197 33753
12.135 33707.3
12.1503 33693.1
12.1656 33659.7
12.1809 33648.3
12.1962 33646.5
12.2116 33631.8
12.2269 33617.4
12.2422 33614.3
12.2575 33618.3
12.2728 33607.1
12.2881 33590.3
12.3035 33614.5
12.3188 33657.9
12.3341 33661.1
12.3494 33659.2
12.3647 33657
12.38 33659.6
12.3954 33667.7
12.4107 33680.2
12.426 33690.4
12.4413 33708.2
12.4566 33734
12.4719 33736.2
12.4873 33732.4
12.5026 33714.5
12.5179 33700
12.5332 33685.7
12.5485 33674.3
12.5638 33662.3
12.5792 33689.4
12.5945 33717.8
12.6098 33713.3
12.6251 33734.7
12.6404 33767
12.6557 33768.2
12.6711 33780.4
12.6864 33766.4
12.7017 33731.6
12.717 33702.2
12.7323 33692.8
12.7476 33688.8
12.763 33715.6
12.7783 33754.2
12.7936 33809.7
12.8089 33863.7
12.8242 33917
12.8395 33983.2
12.8549 34035.8
12.8702 34024
12.8855 33978
12.9008 33899.9
12.9161 33801.7
12.9314 33704.8
12.9467 33617
12.9621 33545.6
12.9774 33493.7
12.9927 33477.1
13.008 33491.4
13.0233 33493.6
13.0386 33491.8
13.054 33514.6
13.0693 33513.8
13.0846 33489.6
13.0999 33486.9
13.1152 33510.1
13.1305 33505.2
13.1459 33478.4
13.1612 33480
13.1765 33475.6
13.1918 33463.8
13.2071 33450.3
13.2224 33457.5
13.2378 33464.7
13.2531 33479.1
13.2684 33512.5
13.2837 33516.4
13.299 33526.3
13.3143 33543.3
13.3297 33566.6
13.345 33597.1
13.3603 33652.2
13.3756 33742.6
13.3909 33840
13.4062 33942.5
13.4216 34072.8
13.4369 34236.7
13.4522 34389.4
13.4675 34543.7
13.4828 34659.3
13.4981 34741.8
13.5135 34814
13.5288 34861
13.5441 34887.1
13.5594 34917.9
13.5747 34942
13.59 34966.6
13.6054 34948.8
13.6207 34895.6
13.636 34778.2
13.6513 34607.4
13.6666 34414.8
13.6819 34230.4
13.6973 34043.1
13.7126 33859.2
13.7279 33709.3
13.7432 33575.5
13.7585 33475.4
13.7738 33378.2
13.7891 33303.5
13.8045 33223.7
13.8198 33171.4
13.8351 33156.3
13.8504 33145.3
13.8657 33128.9
13.881 33115.7
13.8964 33135.8
13.9117 33186.7
13.927 33207.3
13.9423 33219.5
13.9576 33254.9
13.9729 33228.8
13.9883 33190.7
14.0036 33141.6
14.0189 33080
14.0342 32970
14.0495 32850.9
14.0648 32715.4
14.0802 32584.5
14.0955 32453.4
14.1108 32321.7
14.1261 32208.7
14.1414 32118.6
14.1567 32029
14.1721 31977.6
14.1874 31943.7
14.2027 31902.3
14.218 31872.4
14.2333 31847.1
14.2486 31817
14.264 31798.8
14.2793 31783.8
14.2946 31746.8
14.3099 31713.3
14.3252 31674
14.3405 31641.8
14.3559 31589.4
14.3712 31558.7
14.3865 31539.6
14.4018 31541.3
14.4171 31541.8
14.4324 31524.1
14.4478 31474.3
14.4631 31421.9
14.4784 31388.8
14.4937 31363.5
14.509 31372.5
14.5243 31380.4
14.5397 31373.6
14.555 31375.2
14.5703 31393.6
14.5856 31405.1
14.6009 31393.1
14.6162 31384
14.6315 31326
14.6469 31274.3
14.6622 31248.8
14.6775 31229.7
14.6928 31205.1
14.7081 31134.9
14.7234 31076.6
14.7388 31051
14.7541 31021.1
14.7694 30956.4
14.7847 30906.5
14.8 30879.5
14.8153 30845.9
14.8307 30824.7
14.846 30805.4
14.8613 30782.5
14.8766 30754.5
14.8919 30725.7
14.9072 30699
14.9226 30677.3
14.9379 30628.7
14.9532 30587.8
14.9685 30593.2
14.9838 30591.4
14.9991 30603.3
15.0145 30585.3
15.0298 30552.8
15.0451 30542.6
15.0604 30531.1
15.0757 30533.7
15.091 30516.1
15.1064 30480.4
15.1217 30486.3
15.137 30499.8
15.1523 30509.4
15.1676 30552.4
15.1829 30589.9
15.1983 30609
15.2136 30626.2
15.2289 30646.7
15.2442 30680.2
15.2595 30709.5
15.2748 30735
15.2902 30757.4
15.3055 30784.5
15.3208 30800
15.3361 30840.9
15.3514 30909
15.3667 30942
15.382 30942.4
15.3974 30943.6
15.4127 30942.2
15.428 30920
15.4433 30876.2
15.4586 30829.2
15.4739 30806.6
15.4893 30758.6
15.5046 30714.6
15.5199 30666.6
15.5352 30627.8
15.5505 30581.3
15.5658 30558.3
15.5812 30550.2
15.5965 30567.7
15.6118 30548.6
15.6271 30541.9
15.6424 30526
15.6577 30496.2
15.6731 30471.8
15.6884 30442.7
15.7037 30425
15.719 30406.8
15.7343 30384.4
15.7496 30364.7
15.765 30321
15.7803 30292.9
15.7956 30283.2
15.8109 30271.7
15.8262 30251.9
15.8415 30210.1
15.8569 30156.8
15.8722 30104.8
15.8875 30047.5
15.9028 29986
15.9181 29950.3
15.9334 29906
15.9488 29874.6
15.9641 29836
15.9794 29808.2
15.9947 29776.2
16.01 29719.1
16.0253 29691.3
16.0407 29681.4
16.056 29665
16.0713 29629
16.0866 29594.3
16.1019 29599.8
16.1172 29635.1
16.1326 29661.7
16.1479 29673.4
16.1632 29685.4
16.1785 29696.9
16.1938 29711.3
16.2091 29708.7
16.2244 29709.7
16.2398 29673.9
16.2551 29644.6
16.2704 29658.6
16.2857 29664.2
16.301 29649.3
16.3163 29624.2
16.3317 29593.7
16.347 29591.6
16.3623 29607.9
16.3776 29594.8
16.3929 29567.7
16.4082 29543.5
16.4236 29524.5
16.4389 29489
16.4542 29457.5
16.4695 29421.6
16.4848 29394.6
16.5001 29387.2
16.5155 29391.7
16.5308 29389.7
16.5461 29340.9
16.5614 29307.8
16.5767 29264.7
16.592 29197.1
16.6074 29117.8
16.6227 29088.5
16.638 29079.5
16.6533 29073.6
16.6686 29057.4
16.6839 29017.2
16.6993 28977.9
16.7146 28936.6
16.7299 28905.8
16.7452 28893.6
16.7605 28870.7
16.7758 28850.7
16.7912 28825.2
16.8065 28804.3
16.8218 28774.3
16.8371 28744.9
16.8524 28723.2
16.8677 28723.1
16.8831 28719.2
16.8984 28692.7
16.9137 28650.9
16.929 28628
16.9443 28659.4
16.9596 28687.4
16.9749 28699.7
16.9903 28706.1
17.0056 28656.9
17.0209 28598
17.0362 28556.4
17.0515 28522.8
17.0668 28496
17.0822 28507.9
17.0975 28498.6
17.1128 28431
17.1281 28367
17.1434 28344.7
17.1587 28359.4
17.1741 28360.7
17.1894 28329.7
17.2047 28326.1
17.22 28306.5
17.2353 28273.9
17.2506 28251.5
17.266 28219.3
17.2813 28199.4
17.2966 28187.7
17.3119 28168.8
17.3272 28129.9
17.3425 28121
17.3579 28100.3
17.3732 28079
17.3885 28096.7
17.4038 28123.4
17.4191 28122.5
17.4344 28107.9
17.4498 28100.3
17.4651 28108.2
17.4804 28115.4
17.4957 28104
17.511 28079.5
17.5263 28056.7
17.5417 28034.9
17.557 28015.9
17.5723 28005.8
17.5876 28006.8
17.6029 28037.5
17.6182 28051.3
17.6336 28043.7
17.6489 28045.6
17.6642 28065.7
17.6795 28065.6
17.6948 28085
17.7101 28080.7
17.7255 28092.3
17.7408 28112
17.7561 28116
17.7714 28090.9
17.7867 28087
17.802 28083
17.8173 28045.1
17.8327 28002
17.848 27974.6
17.8633 27975.4
17.8786 27980.1
17.8939 27977.4
17.9092 27965.6
17.9246 27969.2
17.9399 27957.8
17.9552 27922
17.9705 27927.2
17.9858 27914.9
18.0011 27861.8
18.0165 27836.9
18.0318 27844.5
18.0471 27855.2
18.0624 27862.2
18.0777 27846.2
18.093 27836.8
18.1084 27823.8
18.1237 27812.5
18.139 27798.1
18.1543 27766.2
18.1696 27767.1
18.1849 27753.3
18.2003 27724.1
18.2156 27737.9
18.2309 27745.8
18.2462 27723.5
18.2615 27716.6
18.2768 27737
18.2922 27757.7
18.3075 27789.2
18.3228 27812.9
18.3381 27809.6
18.3534 27831.1
18.3687 27886.5
18.3841 27928.1
18.3994 27941.4
18.4147 27942.1
18.43 27937.3
18.4453 27925.5
18.4606 27888.9
18.476 27864.3
18.4913 27826.3
18.5066 27758.8
18.5219 27756.8
18.5372 27732.7
18.5525 27693.2
18.5679 27664.1
18.5832 27634.5
18.5985 27635.8
18.6138 27628.5
18.6291 27617.2
18.6444 27609.2
18.6597 27611.7
18.6751 27584.7
18.6904 27576
18.7057 27551
18.721 27517
18.7363 27488.8
18.7516 27468.4
18.767 27471.5
18.7823 27449.4
18.7976 27378.9
18.8129 27350.6
18.8282 27354.1
18.8435 27311.2
18.8589 27276.4
18.8742 27243.4
18.8895 27204.4
18.9048 27190.3
18.9201 27166.6
18.9354 27171.1
18.9508 27201.3
18.9661 27174.2
18.9814 27134.8
18.9967 27084.2
19.012 27032.7
19.0273 27025.9
19.0427 27048.7
19.058 27053.9
19.0733 27020.2
19.0886 26994.1
19.1039 26958.1
19.1192 26930
19.1346 26940.4
19.1499 26921.5
19.1652 26909.2
19.1805 26883.5
19.1958 26912.1
19.2111 26922.8
19.2265 26913.2
19.2418 26914.9
19.2571 26888.8
19.2724 26858.4
19.2877 26861.2
19.303 26833.4
19.3184 26777.2
19.3337 26718.8
19.349 26730.6
19.3643 26721
19.3796 26676.6
19.3949 26646.8
19.4102 26641.4
19.4256 26613.4
19.4409 26605.2
19.4562 26591.6
19.4715 26587
19.4868 26578.4
19.5021 26523.7
19.5175 26530.4
19.5328 26537.2
19.5481 26510.7
19.5634 26455
19.5787 26437.2
19.594 26407.5
19.6094 26435.3
19.6247 26454.4
19.64 26421.6
19.6553 26430.3
19.6706 26417.4
19.6859 26382.5
19.7013 26346.2
19.7166 26340.3
19.7319 26359
19.7472 26344.8
19.7625 26315.2
19.7778 26316.6
19.7932 26350.5
19.8085 26335.8
19.8238 26303
19.8391 26279
19.8544 26243
19.8697 26222.7
19.8851 26230
19.9004 26265
19.9157 26249.3
19.931 26228.3
19.9463 26259.6
19.9616 26135.3
19.977 26062.2
19.9923 26170.3
20.0076 26197.3
20.0229 26160
20.0382 26126.5
20.0535 26131.2
20.0689 26137.2
20.0842 26129.3
20.0995 26109.9
20.1148 26077.8
20.1301 26094.6
20.1454 26101.8
20.1608 26066.8
20.1761 26062.4
20.1914 26070.3
20.2067 26017.4
20.222 25982
20.2373 26030.8
20.2526 26044.1
20.268 26041.2
20.2833 26023
20.2986 26033.7
20.3139 26041.1
20.3292 26027.5
20.3445 26010.2
20.3599 25989.2
20.3752 25965.5
20.3905 25926.1
20.4058 25943.3
20.4211 26005.3
20.4364 26045.7
20.4518 26041.6
20.4671 26045.2
20.4824 26061.5
20.4977 26027.2
20.513 26008.4
20.5283 26009.5
20.5437 25995.9
20.559 25977.1
20.5743 25952
20.5896 25970.4
20.6049 25979.9
20.6202 25980.2
20.6356 25976
20.6509 25967.7
20.6662 25980.3
20.6815 26000.5
20.6968 25975.4
20.7121 25924.4
20.7275 25902.9
20.7428 25898.7
20.7581 25872.4
20.7734 25839.1
20.7887 25832.3
20.804 25827.3
20.8194 25846.9
20.8347 25857.2
20.85 25863.8
20.8653 25852.2
20.8806 25831.1
20.8959 25798.7
20.9113 25803.3
20.9266 25826.9
20.9419 25835.3
20.9572 25824.9
20.9725 25807.4
20.9878 25777.1
21.0031 25776.8
21.0185 25822.3
21.0338 25809
21.0491 25802.6
21.0644 25804.7
21.0797 25777.7
21.095 25765.5
21.1104 25770.7
21.1257 25772.1
21.141 25782.4
21.1563 25762
21.1716 25777.9
21.1869 25778.7
21.2023 25759.8
21.2176 25713.5
21.2329 25743.2
21.2482 25798.3
21.2635 25770.2
21.2788 25749.7
21.2942 25735.5
21.3095 25719.8
21.3248 25756.3
21.3401 25745.3
21.3554 25760.8
21.3707 25705.2
21.3861 25712
21.4014 25724.3
21.4167 25722.9
21.432 25725.7
21.4473 25721.1
21.4626 25714.7
21.478 25713.1
21.4933 25735
21.5086 25738.6
21.5239 25741.2
21.5392 25725.6
21.5545 25697.6
21.5699 25704
21.5852 25748.7
21.6005 25766.5
21.6158 25761.3
21.6311 25686
21.6464 25664.2
21.6618 25687.8
21.6771 25715
21.6924 25764.2
21.7077 25744.6
21.723 25713.7
21.7383 25721.7
21.7537 25722.3
21.769 25723.3
21.7843 25714.7
21.7996 25692
21.8149 25706
21.8302 25707.6
21.8455 25684.3
21.8609 25671
21.8762 25677.5
21.8915 25719.9
21.9068 25725.6
21.9221 25741.2
21.9374 25778.9
21.9528 25769.4
21.9681 25727.2
21.9834 25748.3
21.9987 25763.3
22.014 25761.5
22.0293 25816
22.0447 25838.4
22.06 25833.9
22.0753 25867
22.0906 25854.6
22.1059 25829.1
22.1212 25860.7
22.1366 25878.9
22.1519 25878
22.1672 25833.5
22.1825 25845.3
22.1978 25899.7
22.2131 25895.3
22.2285 25892.6
22.2438 25873.7
22.2591 25851.1
22.2744 25833.3
22.2897 25816
22.305 25867.8
22.3204 25908.1
22.3357 25926.1
22.351 25905.5
22.3663 25873.1
22.3816 25914.1
22.3969 25931.2
22.4123 25903.9
22.4276 25942.6
22.4429 25937.9
22.4582 25925.5
22.4735 25942.4
22.4888 25966.3
22.5042 25952.7
22.5195 25973.1
22.5348 25964
22.5501 25989.2
22.5654 25984
22.5807 25969.4
22.596 25987.9
22.6114 26022.1
22.6267 25980.9
22.642 25935.1
22.6573 25940.8
22.6726 25971
22.6879 25996.3
22.7033 25945.7
22.7186 25966.6
22.7339 25995.5
22.7492 25987
22.7645 26017.1
22.7798 25987.4
22.7952 25967.3
22.8105 25983.4
22.8258 26008.1
22.8411 25973.3
22.8564 25990.8
22.8717 26012.1
22.8871 26030.1
22.9024 26053.9
22.9177 26064.9
22.933 26055.5
22.9483 26084.6
22.9636 26118.8
22.979 26115.9
22.9943 26152.2
