# xPDFsuite Configuration #
[PDF]
wavelength = 0.1
dataformat = QA
inputfile = B3_Bronze-3nm_ss_10.chi
backgroundfile = B3_Li-bkg_ss.chi
mode = xray
bgscale = 0.98705
composition = Ti O2
outputtype = iq
qmaxinst = 23.0
qmin = 0.1
qmax = 23.0
rmax = 30.0
rmin = 0.0
rstep = 0.01
rpoly = 0.9

[Misc]
inputdir = E:/Beamtime/PETRA-III_September-2019/BeamData/processed/Run1/B3/chi/chi_w_sigmas/chi_scaled
savedir = E:/Beamtime/PETRA-III_September-2019/BeamData/processed/Run1/B3
backgroundfilefull = E:/Beamtime/PETRA-III_September-2019/BeamData/processed/Run1/B3/chi/chi_w_sigmas/chi_scaled/B3_Li-bkg_ss.chi

#### start data
#S 1
#L Q($\AA^{-1}$)  intensity(a.u.)
0.111649 0
0.126965 0
0.142282 0
0.157598 0
0.172914 0
0.188231 0
0.203547 0
0.218864 0
0.23418 0
0.249496 0
0.264813 0
0.280129 0
0.295445 0
0.310762 0
0.326078 0
0.341394 0
0.356711 0
0.372027 0
0.387343 0
0.40266 0
0.417976 0
0.433292 0
0.448609 0
0.463925 0
0.479241 0
0.494558 0
0.509874 0
0.525191 0
0.540507 0
0.555823 0
0.57114 0
0.586456 0
0.601772 0
0.617089 0
0.632405 0
0.647721 0
0.663038 0
0.678354 0
0.69367 0
0.708987 0
0.724303 0
0.739619 0
0.754936 0
0.770252 0
0.785568 0
0.800885 0
0.816201 0
0.831518 0
0.846834 0
0.86215 1.30329
0.877467 93571.3
0.892783 94343.4
0.908099 94686.1
0.923416 95822.6
0.938732 97577.6
0.954048 99393.6
0.969365 100907
0.984681 101623
0.999997 101282
1.01531 99850.4
1.03063 96721.5
1.04595 92419.4
1.06126 86823.2
1.07658 80048.4
1.0919 73183.5
1.10721 65227.6
1.12253 57954.2
1.13784 50469.6
1.15316 43620.7
1.16848 37477.3
1.18379 31542.8
1.19911 26625.1
1.21443 21988.3
1.22974 18158.1
1.24506 15075
1.26038 12497.1
1.27569 10640.4
1.29101 9199.49
1.30632 8345.81
1.32164 8038.33
1.33696 8205.93
1.35227 8764.94
1.36759 9826.48
1.38291 11039.3
1.39822 12590.1
1.41354 14000.7
1.42886 15290.7
1.44417 16487.5
1.45949 17608.1
1.4748 18913.4
1.49012 20348.7
1.50544 22397.2
1.52075 24984.9
1.53607 28614.4
1.55139 33634.4
1.5667 39721.9
1.58202 48044.6
1.59733 57347.8
1.61265 68414.6
1.62797 80747.5
1.64328 93464
1.6586 107134
1.67392 119750
1.68923 131745
1.70455 142074
1.71987 150619
1.73518 157502
1.7505 162391
1.76581 166028
1.78113 167934
1.79645 168575
1.81176 167765
1.82708 165757
1.8424 162336
1.85771 158518
1.87303 153958
1.88835 149415
1.90366 144937
1.91898 140794
1.93429 137274
1.94961 134645
1.96493 132863
1.98024 131806
1.99556 130984
2.01088 130178
2.02619 128719
2.04151 126519
2.05683 123151
2.07214 118928
2.08746 114058
2.10277 108526
2.11809 103027
2.13341 97302.3
2.14872 92030.2
2.16404 87122.8
2.17936 82732.1
2.19467 79123
2.20999 76088.9
2.22531 73849.7
2.24062 71991
2.25594 70476.4
2.27125 69111.5
2.28657 67794.4
2.30189 66545.5
2.3172 65129.1
2.33252 63697.8
2.34784 62094.2
2.36315 60530.6
2.37847 59108.5
2.39379 57569.5
2.4091 56499.2
2.42442 55270
2.43973 54605.4
2.45505 54057.3
2.47037 53737.8
2.48568 53707.3
2.501 53804.7
2.51632 53999.9
2.53163 54241.6
2.54695 54433.7
2.56226 54642.3
2.57758 54828.7
2.5929 54997.7
2.60821 55252.4
2.62353 55445.4
2.63885 55657.1
2.65416 55816.3
2.66948 56058.2
2.6848 56365.3
2.70011 56714.6
2.71543 57233.3
2.73074 57771.8
2.74606 58499.2
2.76138 59384.1
2.77669 60544.3
2.79201 62054.3
2.80733 63866.3
2.82264 66431.9
2.83796 69747.2
2.85328 74014.1
2.86859 79538.8
2.88391 85959.4
2.89922 93867.1
2.91454 102371
2.92986 111620
2.94517 121060
2.96049 130185
2.97581 138909
2.99112 146164
3.00644 151970
3.02176 155700
3.03707 157378
3.05239 157037
3.0677 154852
3.08302 151079
3.09834 146184
3.11365 140758
3.12897 135165
3.14429 129957
3.1596 125247
3.17492 121437
3.19024 118209
3.20555 115858
3.22087 114046
3.23618 112432
3.2515 110833
3.26682 108969
3.28213 106734
3.29745 103888
3.31277 100775
3.32808 97276
3.3434 93554.7
3.35872 89916.1
3.37403 86289.8
3.38935 83126.9
3.40466 80268.5
3.41998 77879.4
3.4353 75927.7
3.45061 74367.6
3.46593 73319.1
3.48125 72545.9
3.49656 72089.5
3.51188 71816.5
3.52719 71840.8
3.54251 72164.3
3.55783 72599.4
3.57314 73094
3.58846 73610.3
3.60378 74103.9
3.61909 74554.3
3.63441 74902.1
3.64973 75173.1
3.66504 75254.4
3.68036 75352.6
3.69567 75476.8
3.71099 75676.6
3.72631 76080.7
3.74162 76697.9
3.75694 77669
3.77226 78901.5
3.78757 80358.9
3.80289 82003.8
3.81821 83736
3.83352 85406
3.84884 87015.8
3.86415 88297.7
3.87947 89181.2
3.89479 89568.9
3.9101 89416.4
3.92542 88828.1
3.94074 87898.7
3.95605 86643.7
3.97137 85301.4
3.98669 83819.7
4.002 82470.9
4.01732 81245.8
4.03263 80318.3
4.04795 79701.9
4.06327 79489.7
4.07858 79566
4.0939 79938
4.10922 80457.6
4.12453 81021.9
4.13985 81608.2
4.15517 82062.4
4.17048 82297.2
4.1858 82267.5
4.20111 81979.8
4.21643 81553
4.23175 80949.9
4.24706 80185
4.26238 79326.2
4.2777 78511.7
4.29301 77824.8
4.30833 77253.5
4.32365 76891.4
4.33896 76751.4
4.35428 76925.4
4.36959 77240.8
4.38491 77729.5
4.40023 78169.7
4.41554 78503
4.43086 78631.2
4.44618 78458.7
4.46149 77953.8
4.47681 77089.4
4.49213 75855.9
4.50744 74246.5
4.52276 72346.6
4.53807 70201.2
4.55339 67980.7
4.56871 65684.8
4.58402 63493.3
4.59934 61390.2
4.61466 59513.4
4.62997 57892.4
4.64529 56503.2
4.6606 55362.4
4.67592 54465.1
4.69124 53802.1
4.70655 53416.3
4.72187 53241.3
4.73719 53335
4.7525 53642.6
4.76782 54177.4
4.78314 54951.7
4.79845 55860.2
4.81377 56941.5
4.82908 58170.8
4.8444 59534.5
4.85972 60981.1
4.87503 62403
4.89035 63798.2
4.90567 65073.7
4.92098 66370.7
4.9363 67683.4
4.95162 68999.5
4.96693 70343.4
4.98225 71901.4
4.99756 73900.6
5.01288 76096.5
5.0282 78373.5
5.04351 80697.9
5.05883 82591.5
5.07415 84036.1
5.08946 84902.2
5.10478 84963.2
5.1201 84508.8
5.13541 83305.3
5.15073 81848.5
5.16604 80070.3
5.18136 78255.6
5.19668 76638.1
5.21199 75309.8
5.22731 74266.2
5.24263 73501.7
5.25794 72860.6
5.27326 72409.4
5.28858 72108.7
5.30389 72036.1
5.31921 72271.2
5.33452 72758.1
5.34984 73476.1
5.36516 74183.4
5.38047 74680.2
5.39579 74726.3
5.41111 74195.6
5.42642 73065.8
5.44174 71339.9
5.45706 68999.2
5.47237 66260.9
5.48769 63235.2
5.503 60179
5.51832 57394
5.53364 54890.6
5.54895 52912.4
5.56427 51341.4
5.57959 50137.5
5.5949 49264.3
5.61022 48572.3
5.62553 48084.1
5.64085 47640.3
5.65617 47275.6
5.67148 46992.8
5.6868 46803.2
5.70212 46673.4
5.71743 46621.3
5.73275 46685.5
5.74807 46813
5.76338 47069.6
5.7787 47425
5.79401 47872.7
5.80933 48419.3
5.82465 49024
5.83996 49711.9
5.85528 50419.5
5.8706 51151.8
5.88591 51871
5.90123 52562
5.91655 53205.7
5.93186 53757.2
5.94718 54232.6
5.96249 54582.1
5.97781 54862.8
5.99313 54990.6
6.00844 55027.7
6.02376 54888.8
6.03908 54695.9
6.05439 54407.6
6.06971 54131.3
6.08503 53822.5
6.10034 53544.3
6.11566 53317.9
6.13097 53123.6
6.14629 52935.5
6.16161 52785.2
6.17692 52706.1
6.19224 52711.2
6.20756 52766.5
6.22287 52915.1
6.23819 53134.8
6.25351 53407.3
6.26882 53624
6.28414 53735.4
6.29945 53743.2
6.31477 53570.2
6.33009 53266.5
6.3454 52811.2
6.36072 52253
6.37604 51598.6
6.39135 50951.8
6.40667 50332.7
6.42199 49797.5
6.4373 49338.4
6.45262 48982.7
6.46793 48740
6.48325 48594
6.49857 48529.3
6.51388 48500.3
6.5292 48520.7
6.54452 48539.4
6.55983 48605.8
6.57515 48709.8
6.59046 48851.1
6.60578 49053.9
6.6211 49313.3
6.63641 49666.6
6.65173 50019.7
6.66705 50409.2
6.68236 50809.9
6.69768 51255
6.713 51734.7
6.72831 52202.1
6.74363 52643.1
6.75894 53044.4
6.77426 53418.5
6.78958 53792.8
6.80489 54140.8
6.82021 54435.9
6.83553 54639.8
6.85084 54759.8
6.86616 54807.5
6.88148 54747.4
6.89679 54605.4
6.91211 54377.1
6.92742 54089.3
6.94274 53781.3
6.95806 53439.9
6.97337 53088.3
6.98869 52726.7
7.00401 52364.1
7.01932 52019.4
7.03464 51687
7.04996 51396
7.06527 51136
7.08059 50898.2
7.0959 50682.9
7.11122 50455.5
7.12654 50257.2
7.14185 50088.3
7.15717 49948.8
7.17249 49799.1
7.1878 49652.5
7.20312 49525.2
7.21844 49400.4
7.23375 49276.2
7.24907 49147.8
7.26438 49040.1
7.2797 48886.9
7.29502 48718
7.31033 48527.3
7.32565 48378.2
7.34097 48215.6
7.35628 48072.7
7.3716 47921
7.38692 47793
7.40223 47689.1
7.41755 47631
7.43286 47617.5
7.44818 47608.8
7.4635 47645.1
7.47881 47653.6
7.49413 47680.4
7.50945 47682.3
7.52476 47698.2
7.54008 47661.8
7.55539 47566.9
7.57071 47448.4
7.58603 47260.1
7.60134 47028.8
7.61666 46722.4
7.63198 46405.5
7.64729 46090.4
7.66261 45815.1
7.67793 45643.7
7.69324 45562.8
7.70856 45600.3
7.72387 45719.7
7.73919 45934.5
7.75451 46218.9
7.76982 46547.5
7.78514 46865
7.80046 47160.8
7.81577 47363.2
7.83109 47393
7.84641 47296.4
7.86172 47030.4
7.87704 46665.2
7.89235 46204.5
7.90767 45696.8
7.92299 45180.3
7.9383 44713.8
7.95362 44311
7.96894 43935.1
7.98425 43600.5
7.99957 43283.2
8.01489 43005.6
8.0302 42753.4
8.04552 42531.9
8.06083 42365
8.07615 42239.2
8.09147 42169
8.10678 42144.6
8.1221 42135.1
8.13742 42195.7
8.15273 42285.9
8.16805 42451.3
8.18337 42622.2
8.19868 42842.7
8.214 43037
8.22931 43247.1
8.24463 43438.5
8.25995 43580.4
8.27526 43637.7
8.29058 43632.4
8.3059 43604.1
8.32121 43534.7
8.33653 43433.3
8.35185 43302.7
8.36716 43132.7
8.38248 42984.6
8.39779 42829.9
8.41311 42707.4
8.42843 42583.6
8.44374 42497.5
8.45906 42382.9
8.47438 42268.9
8.48969 42146.1
8.50501 42056.4
8.52032 41968.1
8.53564 41889.8
8.55096 41830
8.56627 41776.3
8.58159 41724.6
8.59691 41698.1
8.61222 41735.1
8.62754 41792
8.64286 41872.2
8.65817 41983.7
8.67349 42138.8
8.6888 42326.3
8.70412 42563.7
8.71944 42898.9
8.73475 43353.3
8.75007 43868.9
8.76539 44460.6
8.7807 45115
8.79602 45721.2
8.81134 46285.3
8.82665 46720.7
8.84197 47036.6
8.85728 47158.7
8.8726 47160.5
8.88792 47080.7
8.90323 46995.7
8.91855 46971.4
8.93387 47038.7
8.94918 47204.5
8.9645 47389.7
8.97982 47529.7
8.99513 47580.6
9.01045 47532
9.02576 47316.1
9.04108 46924.8
9.0564 46359.2
9.07171 45664.1
9.08703 44923.1
9.10235 44188.8
9.11766 43526.9
9.13298 42906.2
9.1483 42337.2
9.16361 41856.2
9.17893 41467.8
9.19424 41133.1
9.20956 40848.1
9.22488 40585.2
9.24019 40360.6
9.25551 40160.4
9.27083 40003.4
9.28614 39832.7
9.30146 39701.2
9.31678 39584
9.33209 39505.9
9.34741 39434.6
9.36272 39420.9
9.37804 39412.3
9.39336 39419.2
9.40867 39412.7
9.42399 39426.2
9.43931 39478.3
9.45462 39559.2
9.46994 39644.9
9.48525 39718.8
9.50057 39841.8
9.51589 39990.5
9.5312 40123.4
9.54652 40220.2
9.56184 40256.4
9.57715 40219.7
9.59247 40092.9
9.60779 39916.8
9.6231 39717.6
9.63842 39484.4
9.65373 39240.2
9.66905 38993
9.68437 38792.6
9.69968 38679.2
9.715 38627.1
9.73032 38616.1
9.74563 38621.3
9.76095 38656.4
9.77627 38722.7
9.79158 38781.7
9.8069 38868.6
9.82221 38936.6
9.83753 38987.4
9.85285 39018.1
9.86816 39083.9
9.88348 39155.5
9.8988 39230.3
9.91411 39291
9.92943 39415.6
9.94475 39563
9.96006 39735.5
9.97538 39888.6
9.99069 40077.1
10.006 40234
10.0213 40413.8
10.0366 40582.7
10.052 40787.9
10.0673 40982.4
10.0826 41192
10.0979 41410.2
10.1132 41642.9
10.1285 41915.5
10.1439 42222.9
10.1592 42537.7
10.1745 42763.2
10.1898 42911.6
10.2051 42986.7
10.2204 42991.6
10.2358 42987.5
10.2511 42967.6
10.2664 42970.1
10.2817 43053
10.297 43218.1
10.3123 43475.7
10.3277 43713
10.343 43873
10.3583 43916.8
10.3736 43860.7
10.3889 43715.6
10.4042 43507.6
10.4196 43242.8
10.4349 42967.9
10.4502 42695.4
10.4655 42481.6
10.4808 42301.3
10.4961 42181.6
10.5115 42095.5
10.5268 42047.6
10.5421 42039.1
10.5574 42087.4
10.5727 42155.8
10.588 42217.6
10.6033 42272.6
10.6187 42289.9
10.634 42245.5
10.6493 42145.1
10.6646 42019
10.6799 41853.9
10.6952 41671.1
10.7106 41502.6
10.7259 41355.8
10.7412 41232.3
10.7565 41169
10.7718 41152.6
10.7871 41157.2
10.8025 41166.9
10.8178 41191.4
10.8331 41173.7
10.8484 41122.2
10.8637 40983.8
10.879 40797.4
10.8944 40574.5
10.9097 40300.1
10.925 40022.1
10.9403 39728.4
10.9556 39451.9
10.9709 39222.8
10.9863 39027.9
11.0016 38850.8
11.0169 38654
11.0322 38445.2
11.0475 38235.9
11.0628 38047.7
11.0782 37873.9
11.0935 37686.8
11.1088 37492.4
11.1241 37321.2
11.1394 37164.3
11.1547 37013.2
11.1701 36883.2
11.1854 36763.9
11.2007 36642.8
11.216 36529.7
11.2313 36449.4
11.2466 36365.1
11.262 36277.1
11.2773 36190
11.2926 36156.2
11.3079 36119.1
11.3232 36082.2
11.3385 36033.1
11.3538 35974.6
11.3692 35930.3
11.3845 35896.5
11.3998 35855.6
11.4151 35813.7
11.4304 35798.3
11.4457 35809.6
11.4611 35846.3
11.4764 35854.2
11.4917 35871
11.507 35906.7
11.5223 35989.7
11.5376 36044.5
11.553 36098.8
11.5683 36135.8
11.5836 36152.2
11.5989 36147.9
11.6142 36130
11.6295 36112.8
11.6449 36059.9
11.6602 35994.8
11.6755 35921.3
11.6908 35855.3
11.7061 35814.3
11.7214 35796.4
11.7368 35832.4
11.7521 35860.4
11.7674 35925.2
11.7827 35971
11.798 36035.9
11.8133 36042.9
11.8287 36029.9
11.844 35997
11.8593 35951
11.8746 35904.2
11.8899 35883
11.9052 35878.5
11.9206 35853.6
11.9359 35849.7
11.9512 35861.1
11.9665 35873.6
11.9818 35899.6
11.9971 35913
12.0125 35918.2
12.0278 35907.4
12.0431 35886.5
12.0584 35840.8
12.0737 35829.8
12.089 35803.1
12.1044 35766.7
12.1197 35720
12.135 35692.6
12.1503 35667.5
12.1656 35630.7
12.1809 35607.9
12.1962 35565.1
12.2116 35530.1
12.2269 35526.1
12.2422 35527.3
12.2575 35522.1
12.2728 35479.5
12.2881 35452.5
12.3035 35448.5
12.3188 35446.2
12.3341 35390.1
12.3494 35359.1
12.3647 35326.9
12.38 35317.4
12.3954 35292.6
12.4107 35293.8
12.426 35285.8
12.4413 35276.1
12.4566 35261.4
12.4719 35221.1
12.4873 35172.7
12.5026 35105.1
12.5179 35060.6
12.5332 35040.8
12.5485 35058.3
12.5638 35065.8
12.5792 35045.7
12.5945 35022.9
12.6098 35011.9
12.6251 35028.8
12.6404 35052.8
12.6557 35073.1
12.6711 35109.4
12.6864 35122.9
12.7017 35096.3
12.717 35083.9
12.7323 35090
12.7476 35095.4
12.763 35138.3
12.7783 35159.8
12.7936 35199.1
12.8089 35262
12.8242 35353
12.8395 35398.9
12.8549 35441.3
12.8702 35434.9
12.8855 35369.1
12.9008 35309.4
12.9161 35235
12.9314 35160.6
12.9467 35057.3
12.9621 34996.7
12.9774 34936.9
12.9927 34911
13.008 34869.3
13.0233 34839.2
13.0386 34831.5
13.054 34841.6
13.0693 34859.5
13.0846 34869.3
13.0999 34874.4
13.1152 34869.6
13.1305 34848.9
13.1459 34842.2
13.1612 34845.3
13.1765 34848.1
13.1918 34845
13.2071 34846
13.2224 34851
13.2378 34845.7
13.2531 34849.4
13.2684 34890.3
13.2837 34896.8
13.299 34917
13.3143 34959.7
13.3297 35004.6
13.345 35057.3
13.3603 35137.2
13.3756 35240.5
13.3909 35383.8
13.4062 35532.9
13.4216 35696
13.4369 35889.9
13.4522 36079.5
13.4675 36258.3
13.4828 36401.1
13.4981 36500.2
13.5135 36575.4
13.5288 36623.3
13.5441 36666.3
13.5594 36728
13.5747 36776.5
13.59 36794.3
13.6054 36777.1
13.6207 36688.5
13.636 36565.1
13.6513 36415.3
13.6666 36244.5
13.6819 36057.3
13.6973 35843.4
13.7126 35649
13.7279 35496.7
13.7432 35370.2
13.7585 35279.7
13.7738 35217.3
13.7891 35159.6
13.8045 35097.9
13.8198 35021.6
13.8351 34964.2
13.8504 34957.8
13.8657 34951.7
13.881 34941.7
13.8964 34943.7
13.9117 34967.5
13.927 34976.9
13.9423 34988.2
13.9576 35015.6
13.9729 34991.2
13.9883 34951.9
14.0036 34896.3
14.0189 34828.7
14.0342 34736.4
14.0495 34613.9
14.0648 34481.3
14.0802 34326.1
14.0955 34182.6
14.1108 34076
14.1261 33977.3
14.1414 33897.6
14.1567 33803.3
14.1721 33723.6
14.1874 33679.4
14.2027 33646.2
14.218 33593.1
14.2333 33537.3
14.2486 33528.4
14.264 33530.9
14.2793 33521.4
14.2946 33507.9
14.3099 33470.4
14.3252 33427.3
14.3405 33407.4
14.3559 33356.7
14.3712 33307.6
14.3865 33297.8
14.4018 33302
14.4171 33290.6
14.4324 33274
14.4478 33259.5
14.4631 33226.3
14.4784 33231.7
14.4937 33258.4
14.509 33284.7
14.5243 33286.7
14.5397 33261.6
14.555 33264.8
14.5703 33291.8
14.5856 33273.8
14.6009 33239.4
14.6162 33202.7
14.6315 33140
14.6469 33093
14.6622 33075.7
14.6775 33072.1
14.6928 33051.6
14.7081 32991.7
14.7234 32936.3
14.7388 32862.6
14.7541 32808.1
14.7694 32771
14.7847 32723.8
14.8 32683.9
14.8153 32644.7
14.8307 32600.1
14.846 32578.9
14.8613 32562.4
14.8766 32534.3
14.8919 32505.5
14.9072 32470.5
14.9226 32432.4
14.9379 32367.8
14.9532 32318.8
14.9685 32312.8
14.9838 32311.2
14.9991 32300.8
15.0145 32282.8
15.0298 32260.4
15.0451 32238.6
15.0604 32259.2
15.0757 32279.5
15.091 32275.1
15.1064 32278.9
15.1217 32291.9
15.137 32288.2
15.1523 32271.5
15.1676 32305.5
15.1829 32336.7
15.1983 32341.9
15.2136 32341.7
15.2289 32373
15.2442 32437.1
15.2595 32476.4
15.2748 32490.9
15.2902 32528
15.3055 32568.1
15.3208 32591
15.3361 32629.6
15.3514 32669
15.3667 32681.8
15.382 32670.9
15.3974 32663.6
15.4127 32663.2
15.428 32648.8
15.4433 32616.5
15.4586 32571.4
15.4739 32525
15.4893 32474.7
15.5046 32438.7
15.5199 32404.7
15.5352 32390.7
15.5505 32351.8
15.5658 32306.7
15.5812 32291.6
15.5965 32301.6
15.6118 32284.7
15.6271 32253.4
15.6424 32213.9
15.6577 32171.2
15.6731 32145.4
15.6884 32144.3
15.7037 32156.8
15.719 32153.3
15.7343 32136.3
15.7496 32106.2
15.765 32074.1
15.7803 32058.2
15.7956 32031.3
15.8109 31994.8
15.8262 31982.6
15.8415 31944.4
15.8569 31884
15.8722 31822.8
15.8875 31753.9
15.9028 31682.7
15.9181 31642.4
15.9334 31594.4
15.9488 31546.8
15.9641 31513.3
15.9794 31492.1
15.9947 31485
16.01 31441.8
16.0253 31410.9
16.0407 31386.6
16.056 31367.7
16.0713 31371.1
16.0866 31343.7
16.1019 31337.5
16.1172 31345.2
16.1326 31364.3
16.1479 31350.3
16.1632 31335.6
16.1785 31342.4
16.1938 31349
16.2091 31346.7
16.2244 31344.2
16.2398 31315.7
16.2551 31304.1
16.2704 31320.1
16.2857 31330.2
16.301 31309.3
16.3163 31295.7
16.3317 31289.4
16.347 31285.5
16.3623 31274.3
16.3776 31235.5
16.3929 31200.5
16.4082 31194.2
16.4236 31194.3
16.4389 31166.1
16.4542 31125.2
16.4695 31082.8
16.4848 31049.4
16.5001 31046.8
16.5155 31053.6
16.5308 31031.6
16.5461 31004.4
16.5614 30997.4
16.5767 30966.9
16.592 30929.9
16.6074 30878
16.6227 30842.6
16.638 30815.6
16.6533 30813.4
16.6686 30804.7
16.6839 30759.4
16.6993 30704.2
16.7146 30647.4
16.7299 30629.3
16.7452 30637.1
16.7605 30629.2
16.7758 30623.1
16.7912 30611.5
16.8065 30593
16.8218 30556.4
16.8371 30536.6
16.8524 30528.5
16.8677 30524.8
16.8831 30483.7
16.8984 30449.2
16.9137 30406.3
16.929 30405.3
16.9443 30432.7
16.9596 30453.2
16.9749 30453
16.9903 30435
17.0056 30411.8
17.0209 30378
17.0362 30344.4
17.0515 30322.3
17.0668 30281.7
17.0822 30264.3
17.0975 30237.1
17.1128 30191.4
17.1281 30188.7
17.1434 30192.8
17.1587 30166.1
17.1741 30136.2
17.1894 30120.8
17.2047 30117.5
17.22 30094.5
17.2353 30062.6
17.2506 30042.5
17.266 30023.1
17.2813 30005.7
17.2966 30015
17.3119 30020.2
17.3272 29985.2
17.3425 29956.5
17.3579 29934.8
17.3732 29909.1
17.3885 29922.6
17.4038 29946.5
17.4191 29949.6
17.4344 29923.2
17.4498 29907.4
17.4651 29917.8
17.4804 29933.7
17.4957 29921.7
17.511 29901.6
17.5263 29909.1
17.5417 29897.7
17.557 29871
17.5723 29897.2
17.5876 29897.6
17.6029 29908.5
17.6182 29902.8
17.6336 29896
17.6489 29907.2
17.6642 29910.9
17.6795 29904.1
17.6948 29912.6
17.7101 29899.2
17.7255 29896.5
17.7408 29906.3
17.7561 29911.3
17.7714 29918.8
17.7867 29924.7
17.802 29928.5
17.8173 29918.6
17.8327 29892
17.848 29850.5
17.8633 29815.4
17.8786 29775
17.8939 29737.4
17.9092 29741.9
17.9246 29798.1
17.9399 29810.5
17.9552 29766
17.9705 29751.9
17.9858 29730.9
18.0011 29699.1
18.0165 29681.3
18.0318 29649.8
18.0471 29650.1
18.0624 29650.5
18.0777 29642
18.093 29643.2
18.1084 29631
18.1237 29597.2
18.139 29603.7
18.1543 29621.7
18.1696 29639.9
18.1849 29612.1
18.2003 29582.1
18.2156 29589.5
18.2309 29580.6
18.2462 29573.4
18.2615 29599.3
18.2768 29601.3
18.2922 29594.3
18.3075 29622.5
18.3228 29635
18.3381 29640.5
18.3534 29656.5
18.3687 29694.8
18.3841 29740.4
18.3994 29773
18.4147 29791.2
18.43 29794.7
18.4453 29729.9
18.4606 29679.2
18.476 29676.1
18.4913 29637.5
18.5066 29594.4
18.5219 29581.8
18.5372 29588.9
18.5525 29580.2
18.5679 29529.4
18.5832 29492.9
18.5985 29483.8
18.6138 29459.5
18.6291 29440.6
18.6444 29402.6
18.6597 29369.7
18.6751 29353.8
18.6904 29370.2
18.7057 29392.6
18.721 29378.2
18.7363 29326.5
18.7516 29327.7
18.767 29331
18.7823 29269.1
18.7976 29184.5
18.8129 29150.6
18.8282 29168.2
18.8435 29162.9
18.8589 29120.2
18.8742 29070.7
18.8895 29061.4
18.9048 29049.2
18.9201 28998.7
18.9354 28982.4
18.9508 28989.1
18.9661 28965.9
18.9814 28938.1
18.9967 28896
19.012 28825
19.0273 28839.1
19.0427 28873
19.058 28855.3
19.0733 28810.8
19.0886 28758.1
19.1039 28767.2
19.1192 28768.4
19.1346 28758.4
19.1499 28743.3
19.1652 28766.3
19.1805 28739.2
19.1958 28735.3
19.2111 28738.9
19.2265 28737.5
19.2418 28741.4
19.2571 28704.1
19.2724 28665.2
19.2877 28642.2
19.303 28624.1
19.3184 28577.8
19.3337 28519
19.349 28508.6
19.3643 28511.4
19.3796 28513.5
19.3949 28535.6
19.4102 28528
19.4256 28493.7
19.4409 28477
19.4562 28454.9
19.4715 28437.5
19.4868 28420.8
19.5021 28392.1
19.5175 28380.8
19.5328 28371.9
19.5481 28329
19.5634 28294.7
19.5787 28300.9
19.594 28278.7
19.6094 28293.7
19.6247 28297.8
19.64 28264.4
19.6553 28267.9
19.6706 28221.6
19.6859 28201.8
19.7013 28216.7
19.7166 28191.1
19.7319 28184.8
19.7472 28158.6
19.7625 28104.2
19.7778 28110.5
19.7932 28149.4
19.8085 28147.6
19.8238 28153.5
19.8391 28143.4
19.8544 28102.3
19.8697 28054.7
19.8851 28035.8
19.9004 28080.5
19.9157 28062.8
19.931 28027.7
19.9463 28052.3
19.9616 28023.9
19.977 27998.8
19.9923 28025.8
20.0076 28037.5
20.0229 28016.5
20.0382 27973.2
20.0535 27941
20.0689 27922
20.0842 27935.3
20.0995 27939.5
20.1148 27933.1
20.1301 27944.8
20.1454 27919.3
20.1608 27935.5
20.1761 27958.5
20.1914 27928.3
20.2067 27871.8
20.222 27844
20.2373 27869.5
20.2526 27918.4
20.268 27926.5
20.2833 27917.8
20.2986 27932.3
20.3139 27918.4
20.3292 27900.9
20.3445 27877.9
20.3599 27871
20.3752 27870.9
20.3905 27852.5
20.4058 27854.3
20.4211 27858.7
20.4364 27862.4
20.4518 27857.5
20.4671 27856.6
20.4824 27886.8
20.4977 27857.4
20.513 27827.7
20.5283 27824.6
20.5437 27865.3
20.559 27896.2
20.5743 27844.5
20.5896 27817.7
20.6049 27857.4
20.6202 27853.2
20.6356 27829.3
20.6509 27841.2
20.6662 27837.8
20.6815 27848.5
20.6968 27833.3
20.7121 27787.6
20.7275 27801.5
20.7428 27823.9
20.7581 27779
20.7734 27729.8
20.7887 27715.8
20.804 27698.6
20.8194 27724.4
20.8347 27757.6
20.85 27725.8
20.8653 27655.7
20.8806 27646.8
20.8959 27682.9
20.9113 27692.1
20.9266 27718.8
20.9419 27738.3
20.9572 27691.2
20.9725 27647.2
20.9878 27613.8
21.0031 27571.7
21.0185 27644
21.0338 27669.8
21.0491 27649.6
21.0644 27639.3
21.0797 27629.2
21.095 27641.4
21.1104 27630.5
21.1257 27647.6
21.141 27689.1
21.1563 27673.1
21.1716 27648.7
21.1869 27655.4
21.2023 27641.5
21.2176 27609.7
21.2329 27623.7
21.2482 27655.5
21.2635 27627.3
21.2788 27620.6
21.2942 27618
21.3095 27586.8
21.3248 27623.4
21.3401 27645.9
21.3554 27622.1
21.3707 27566.3
21.3861 27567.8
21.4014 27534.2
21.4167 27524
21.432 27565.5
21.4473 27589.9
21.4626 27570.2
21.478 27531.5
21.4933 27561.8
21.5086 27568.8
21.5239 27568.6
21.5392 27604.5
21.5545 27575.9
21.5699 27538.5
21.5852 27525.1
21.6005 27588.8
21.6158 27589.5
21.6311 27543.2
21.6464 27528
21.6618 27531.8
21.6771 27587.9
21.6924 27623.7
21.7077 27617.6
21.723 27602.5
21.7383 27617.2
21.7537 27616.9
21.769 27571.3
21.7843 27554.4
21.7996 27545.6
21.8149 27571.2
21.8302 27560.4
21.8455 27551.7
21.8609 27526.7
21.8762 27523.1
21.8915 27551.8
21.9068 27535.3
21.9221 27570.2
21.9374 27592.5
21.9528 27577.5
21.9681 27609.9
21.9834 27615.4
21.9987 27583.9
22.014 27564.2
22.0293 27606
22.0447 27653.8
22.06 27651.2
22.0753 27621.4
22.0906 27614.5
22.1059 27639.5
22.1212 27685.2
22.1366 27672.3
22.1519 27689.9
22.1672 27709.9
22.1825 27705.3
22.1978 27704.7
22.2131 27692.4
22.2285 27705.3
22.2438 27662.4
22.2591 27646.5
22.2744 27625.7
22.2897 27602.6
22.305 27615.8
22.3204 27675.7
22.3357 27725
22.351 27734.5
22.3663 27715.5
22.3816 27739
22.3969 27766.7
22.4123 27749.6
22.4276 27761.8
22.4429 27725.9
22.4582 27691.2
22.4735 27688.3
22.4888 27714.6
22.5042 27708.9
22.5195 27696.9
22.5348 27689.8
22.5501 27716.5
22.5654 27722.1
22.5807 27735.7
22.596 27765.6
22.6114 27831.1
22.6267 27755.1
22.642 27763.8
22.6573 27781.5
22.6726 27743.7
22.6879 27753.9
22.7033 27759.4
22.7186 27738.1
22.7339 27756.2
22.7492 27743.3
22.7645 27724.9
22.7798 27736.3
22.7952 27743.7
22.8105 27763.5
22.8258 27786
22.8411 27751
22.8564 27757
22.8717 27741.8
22.8871 27704.9
22.9024 27721.3
22.9177 27750.6
22.933 27739.1
22.9483 27763.6
22.9636 27792.8
22.979 27774.3
22.9943 27849.4
