# xPDFsuite Configuration #
[PDF]
wavelength = 0.1
dataformat = QA
inputfile = B3_Bronze-3nm_ss_02.chi
backgroundfile = B3_Li-bkg_ss.chi
mode = xray
bgscale = 0.98705
composition = Ti O2
outputtype = iq
qmaxinst = 23.0
qmin = 0.1
qmax = 23.0
rmax = 30.0
rmin = 0.0
rstep = 0.01
rpoly = 0.9

[Misc]
inputdir = E:/Beamtime/PETRA-III_September-2019/BeamData/processed/Run1/B3/chi/chi_w_sigmas/chi_scaled
savedir = E:/Beamtime/PETRA-III_September-2019/BeamData/processed/Run1/B3
backgroundfilefull = E:/Beamtime/PETRA-III_September-2019/BeamData/processed/Run1/B3/chi/chi_w_sigmas/chi_scaled/B3_Li-bkg_ss.chi

#### start data
#S 1
#L Q($\AA^{-1}$)  intensity(a.u.)
0.111649 0
0.126965 0
0.142282 0
0.157598 0
0.172914 0
0.188231 0
0.203547 0
0.218864 0
0.23418 0
0.249496 0
0.264813 0
0.280129 0
0.295445 0
0.310762 0
0.326078 0
0.341394 0
0.356711 0
0.372027 0
0.387343 0
0.40266 0
0.417976 0
0.433292 0
0.448609 0
0.463925 0
0.479241 0
0.494558 0
0.509874 0
0.525191 0
0.540507 0
0.555823 0
0.57114 0
0.586456 0
0.601772 0
0.617089 0
0.632405 0
0.647721 0
0.663038 0
0.678354 0
0.69367 0
0.708987 0
0.724303 0
0.739619 0
0.754936 0
0.770252 0
0.785568 0
0.800885 0
0.816201 0
0.831518 0
0.846834 0
0.86215 1.30748
0.877467 93872.1
0.892783 93729.3
0.908099 93877
0.923416 94798.1
0.938732 96380.6
0.954048 98367.7
0.969365 100242
0.984681 101507
0.999997 101972
1.01531 101497
1.03063 99680.7
1.04595 96684
1.06126 92459.7
1.07658 86968
1.0919 81093.8
1.10721 74088.4
1.12253 67389.7
1.13784 60346.4
1.15316 53631.6
1.16848 47487.4
1.18379 41409.5
1.19911 36246.9
1.21443 31222.4
1.22974 26976.9
1.24506 23279.3
1.26038 20072.3
1.27569 17556.4
1.29101 15459.7
1.30632 13954.4
1.32164 12942.6
1.33696 12457.2
1.35227 12372.4
1.36759 12715.7
1.38291 13193.4
1.39822 14086.6
1.41354 14926.7
1.42886 15786.7
1.44417 16630.9
1.45949 17406.3
1.4748 18370.1
1.49012 19528.4
1.50544 21247.2
1.52075 23580
1.53607 26924.7
1.55139 31606.8
1.5667 37361.9
1.58202 45383.6
1.59733 54616.1
1.61265 65701.4
1.62797 78451.9
1.64328 91939
1.6586 107301
1.67392 122196
1.68923 137523
1.70455 151652
1.71987 164312
1.73518 175477
1.7505 184181
1.76581 191167
1.78113 195508
1.79645 197453
1.81176 197003
1.82708 194352
1.8424 189284
1.85771 183335
1.87303 176056
1.88835 168878
1.90366 162060
1.91898 155915
1.93429 150980
1.94961 147344
1.96493 145144
1.98024 144097
1.99556 143667
2.01088 143470
2.02619 142678
2.04151 141033
2.05683 137935
2.07214 133804
2.08746 128684
2.10277 122623
2.11809 116299
2.13341 109515
2.14872 102987
2.16404 96647
2.17936 90806.5
2.19467 85778.5
2.20999 81431.3
2.22531 78148.2
2.24062 75620.4
2.25594 73707.4
2.27125 72227.9
2.28657 70963
2.30189 69860.2
2.3172 68631.3
2.33252 67291.3
2.34784 65607.5
2.36315 63868.2
2.37847 62048.4
2.39379 59993.5
2.4091 58299.6
2.42442 56497.9
2.43973 55310.2
2.45505 54318.9
2.47037 53615.3
2.48568 53400.6
2.501 53387.7
2.51632 53666.6
2.53163 54011.2
2.54695 54505
2.56226 55123
2.57758 55706.4
2.5929 56168.8
2.60821 56525
2.62353 56557
2.63885 56272
2.65416 55729.3
2.66948 55052.5
2.6848 54282.2
2.70011 53521.4
2.71543 52948.9
2.73074 52487
2.74606 52263
2.76138 52298.6
2.77669 52664.3
2.79201 53468.2
2.80733 54593.6
2.82264 56441.8
2.83796 58949.4
2.85328 62273.6
2.86859 66603.2
2.88391 71658.4
2.89922 77945.6
2.91454 84903.6
2.92986 92745.7
2.94517 101183
2.96049 109695
2.97581 118334
2.99112 126143
3.00644 133219
3.02176 138794
3.03707 142560
3.05239 144467
3.0677 144439
3.08302 142541
3.09834 139090
3.11365 134491
3.12897 129245
3.14429 123850
3.1596 118756
3.17492 114567
3.19024 111338
3.20555 109449
3.22087 108750
3.23618 108923
3.2515 109618
3.26682 110435
3.28213 111082
3.29745 111104
3.31277 110532
3.32808 109044
3.3434 106714
3.35872 103827
3.37403 100223
3.38935 96486.1
3.40466 92582.8
3.41998 88852.8
3.4353 85433.3
3.45061 82321.6
3.46593 79816.8
3.48125 77663
3.49656 76002.2
3.51188 74732.1
3.52719 73971.5
3.54251 73743
3.55783 73937.4
3.57314 74499
3.58846 75366.9
3.60378 76415.9
3.61909 77614.1
3.63441 78900.3
3.64973 80128.7
3.66504 81197.8
3.68036 82126.1
3.69567 82730.1
3.71099 83050.7
3.72631 83109.1
3.74162 82984.7
3.75694 82926.2
3.77226 82857
3.78757 82991
3.80289 83411.2
3.81821 84138.9
3.83352 85223.7
3.84884 86691.1
3.86415 88355.1
3.87947 90157.4
3.89479 91847.2
3.9101 93297.7
3.92542 94373.6
3.94074 94946.9
3.95605 94896.5
3.97137 94351.2
3.98669 93180.8
4.002 91729.3
4.01732 89997.7
4.03263 88209.7
4.04795 86556.2
4.06327 85154.8
4.07858 84182.4
4.0939 83622.5
4.10922 83546.8
4.12453 83851.9
4.13985 84394.4
4.15517 84947.1
4.17048 85337.5
4.1858 85426.7
4.20111 85182.5
4.21643 84625.1
4.23175 83671.9
4.24706 82400.3
4.26238 80917.9
4.2777 79341.1
4.29301 77757.6
4.30833 76197.3
4.32365 74798.2
4.33896 73720.8
4.35428 72942.8
4.36959 72433.4
4.38491 72262
4.40023 72416.4
4.41554 72813
4.43086 73306.1
4.44618 73801.2
4.46149 74343.9
4.47681 74695.5
4.49213 74836.1
4.50744 74672.8
4.52276 74202.5
4.53807 73349.9
4.55339 72214.7
4.56871 70802.5
4.58402 69217.7
4.59934 67437.3
4.61466 65630.5
4.62997 63826
4.64529 62083.9
4.6606 60498.8
4.67592 59041.6
4.69124 57812
4.70655 56762.9
4.72187 55925.1
4.73719 55307.3
4.7525 54932.5
4.76782 54833.4
4.78314 55047.5
4.79845 55473.1
4.81377 56200.2
4.82908 57181.6
4.8444 58463
4.85972 59960.7
4.87503 61639.2
4.89035 63472.5
4.90567 65404.6
4.92098 67459.6
4.9363 69536.1
4.95162 71673.4
4.96693 73780.2
4.98225 75984.1
4.99756 78455.7
5.01288 80971.2
5.0282 83360.1
5.04351 85638
5.05883 87298
5.07415 88420
5.08946 88863.6
5.10478 88503.3
5.1201 87609.3
5.13541 85995
5.15073 84169.4
5.16604 82031.5
5.18136 79923.8
5.19668 78036.3
5.21199 76473.7
5.22731 75250.3
5.24263 74355.9
5.25794 73673.7
5.27326 73212.1
5.28858 72956.3
5.30389 72966
5.31921 73307.3
5.33452 73996
5.34984 74982.5
5.36516 75982.5
5.38047 76838.4
5.39579 77265.8
5.41111 77151.3
5.42642 76379.1
5.44174 75015.7
5.45706 72980.1
5.47237 70447.8
5.48769 67550.2
5.503 64542.9
5.51832 61710
5.53364 59075.8
5.54895 56881.2
5.56427 55038.9
5.57959 53503.6
5.5949 52305.7
5.61022 51268.8
5.62553 50448.3
5.64085 49639.8
5.65617 48946.3
5.67148 48311.3
5.6868 47811.2
5.70212 47374.5
5.71743 47012.2
5.73275 46806.4
5.74807 46696.1
5.76338 46765.5
5.7787 46993.8
5.79401 47429.2
5.80933 48094.5
5.82465 48881.7
5.83996 49825.3
5.85528 50813.4
5.8706 51849.6
5.88591 52888
5.90123 53895.2
5.91655 54798
5.93186 55576.5
5.94718 56164.1
5.96249 56560.1
5.97781 56801.4
5.99313 56857.8
6.00844 56768.5
6.02376 56508.5
6.03908 56185.3
6.05439 55869.5
6.06971 55586.3
6.08503 55358.6
6.10034 55169.4
6.11566 55066.8
6.13097 54978.7
6.14629 54956.4
6.16161 54948.3
6.17692 54993.2
6.19224 55070.6
6.20756 55187.3
6.22287 55361.8
6.23819 55571.6
6.25351 55782.9
6.26882 55909.3
6.28414 55907.9
6.29945 55725.4
6.31477 55349.7
6.33009 54799.6
6.3454 54102.6
6.36072 53306.6
6.37604 52439.9
6.39135 51582.6
6.40667 50803.4
6.42199 50170.5
6.4373 49668.9
6.45262 49298.3
6.46793 49036.3
6.48325 48895.3
6.49857 48812
6.51388 48805
6.5292 48802.9
6.54452 48830.5
6.55983 48820.1
6.57515 48835.1
6.59046 48833.2
6.60578 48890.8
6.6211 48998.4
6.63641 49181.5
6.65173 49368.3
6.66705 49598.8
6.68236 49891.1
6.69768 50253.8
6.713 50675.6
6.72831 51153
6.74363 51660.5
6.75894 52210.7
6.77426 52812.1
6.78958 53484.6
6.80489 54146.5
6.82021 54785.3
6.83553 55390
6.85084 55898.6
6.86616 56334.2
6.88148 56665.4
6.89679 56911.4
6.91211 57033.5
6.92742 57021.4
6.94274 56922.7
6.95806 56741.3
6.97337 56468.6
6.98869 56097.2
7.00401 55654.6
7.01932 55161.8
7.03464 54612.6
7.04996 54065.2
7.06527 53483.6
7.08059 52915.4
7.0959 52375.4
7.11122 51843.6
7.12654 51321.3
7.14185 50808.3
7.15717 50360.2
7.17249 49943.7
7.1878 49570.7
7.20312 49251.9
7.21844 48997.9
7.23375 48825.1
7.24907 48725.8
7.26438 48707.9
7.2797 48693.2
7.29502 48694.8
7.31033 48681.2
7.32565 48677.1
7.34097 48673
7.35628 48656.5
7.3716 48600.3
7.38692 48570.6
7.40223 48519.5
7.41755 48503.3
7.43286 48526.3
7.44818 48571.9
7.4635 48682.1
7.47881 48819.8
7.49413 49027
7.50945 49219.9
7.52476 49423.4
7.54008 49546.1
7.55539 49621.9
7.57071 49627.9
7.58603 49550
7.60134 49396.5
7.61666 49156
7.63198 48900.2
7.64729 48613.2
7.66261 48327.4
7.67793 48114
7.69324 47992.5
7.70856 47989.2
7.72387 48111.6
7.73919 48323.2
7.75451 48618.3
7.76982 48924.3
7.78514 49260.5
7.80046 49548.8
7.81577 49759.2
7.83109 49836.7
7.84641 49802.1
7.86172 49587.2
7.87704 49237.2
7.89235 48778.3
7.90767 48286
7.92299 47786.1
7.9383 47319.8
7.95362 46867
7.96894 46470.6
7.98425 46076.5
7.99957 45711.8
8.01489 45378.7
8.0302 45042.4
8.04552 44695.3
8.06083 44370.5
8.07615 44089
8.09147 43867.8
8.10678 43703.7
8.1221 43594.9
8.13742 43553.2
8.15273 43583.5
8.16805 43687.2
8.18337 43831
8.19868 44028.3
8.214 44258
8.22931 44542.6
8.24463 44833.5
8.25995 45084.4
8.27526 45291.8
8.29058 45444.2
8.3059 45580
8.32121 45651.2
8.33653 45672.3
8.35185 45663.3
8.36716 45580.5
8.38248 45482.9
8.39779 45319.6
8.41311 45144.1
8.42843 44917.5
8.44374 44717.9
8.45906 44489.5
8.47438 44274.6
8.48969 44055
8.50501 43855.9
8.52032 43660.7
8.53564 43489.6
8.55096 43343.9
8.56627 43190.1
8.58159 43043.6
8.59691 42912.7
8.61222 42812.7
8.62754 42719.5
8.64286 42651.5
8.65817 42599
8.67349 42587.4
8.6888 42629.7
8.70412 42777.5
8.71944 43041.8
8.73475 43415.9
8.75007 43901.4
8.76539 44545.5
8.7807 45294.3
8.79602 46036.6
8.81134 46727.7
8.82665 47311.5
8.84197 47798.3
8.85728 48140.8
8.8726 48344.2
8.88792 48469.8
8.90323 48585
8.91855 48740.3
8.93387 48930.4
8.94918 49181.4
8.9645 49454.3
8.97982 49674.7
8.99513 49777.2
9.01045 49751.6
9.02576 49568.3
9.04108 49221
9.0564 48712.4
9.07171 48062.6
9.08703 47340.1
9.10235 46596.7
9.11766 45884.4
9.13298 45250.4
9.1483 44679.9
9.16361 44194.9
9.17893 43776
9.19424 43413.8
9.20956 43087.6
9.22488 42760.8
9.24019 42471.5
9.25551 42185.6
9.27083 41924.7
9.28614 41680.1
9.30146 41458.7
9.31678 41249.1
9.33209 41070.4
9.34741 40912.3
9.36272 40795
9.37804 40698.3
9.39336 40651.5
9.40867 40632.3
9.42399 40636.4
9.43931 40684.1
9.45462 40764.6
9.46994 40873.7
9.48525 41016.2
9.50057 41216.1
9.51589 41438.6
9.5312 41605.3
9.54652 41731.7
9.56184 41778.1
9.57715 41737.4
9.59247 41596.5
9.60779 41381.6
9.6231 41107
9.63842 40804.7
9.65373 40493.1
9.66905 40188.1
9.68437 39931.5
9.69968 39730.7
9.715 39598.4
9.73032 39503.8
9.74563 39427.5
9.76095 39394.5
9.77627 39421.5
9.79158 39476.4
9.8069 39544.8
9.82221 39593.4
9.83753 39648
9.85285 39692.3
9.86816 39768.2
9.88348 39841.9
9.8988 39935.4
9.91411 40026.5
9.92943 40184.7
9.94475 40364.3
9.96006 40580
9.97538 40778
9.99069 40995.9
10.006 41218
10.0213 41484.8
10.0366 41746.6
10.052 41982.5
10.0673 42232.9
10.0826 42473.2
10.0979 42751.3
10.1132 43015
10.1285 43333.9
10.1439 43642.5
10.1592 43931.4
10.1745 44147.8
10.1898 44264.6
10.2051 44297.8
10.2204 44247.7
10.2358 44187.2
10.2511 44133.7
10.2664 44120.9
10.2817 44177
10.297 44319.8
10.3123 44577.9
10.3277 44839
10.343 45050.8
10.3583 45168.4
10.3736 45209.6
10.3889 45158.6
10.4042 45038.5
10.4196 44857.4
10.4349 44631.8
10.4502 44413.4
10.4655 44233.1
10.4808 44086.6
10.4961 43985.2
10.5115 43963
10.5268 43956.1
10.5421 43995.3
10.5574 44045.4
10.5727 44145.8
10.588 44218.2
10.6033 44294.5
10.6187 44345.8
10.634 44351.2
10.6493 44295.8
10.6646 44189.1
10.6799 44019.8
10.6952 43828.4
10.7106 43659
10.7259 43511.9
10.7412 43362.7
10.7565 43246.3
10.7718 43193.1
10.7871 43198.6
10.8025 43227.9
10.8178 43253.9
10.8331 43228.4
10.8484 43165.7
10.8637 43055.7
10.879 42904.3
10.8944 42696.1
10.9097 42431.9
10.925 42150.2
10.9403 41861.6
10.9556 41584.9
10.9709 41347.1
10.9863 41148.9
11.0016 40968.9
11.0169 40794.8
11.0322 40614.1
11.0475 40426.7
11.0628 40210.5
11.0782 39997.5
11.0935 39777.1
11.1088 39570.7
11.1241 39368.1
11.1394 39152.4
11.1547 38964.1
11.1701 38785.2
11.1854 38631
11.2007 38463.2
11.216 38302.4
11.2313 38160.4
11.2466 38013.4
11.262 37890
11.2773 37778.4
11.2926 37731.5
11.3079 37691.5
11.3232 37656.6
11.3385 37607.3
11.3538 37557.9
11.3692 37538.5
11.3845 37518
11.3998 37500.4
11.4151 37465.3
11.4304 37469.7
11.4457 37505.5
11.4611 37572
11.4764 37607.7
11.4917 37655
11.507 37687.6
11.5223 37734.6
11.5376 37784.1
11.553 37838.3
11.5683 37877
11.5836 37897.9
11.5989 37885.7
11.6142 37839.7
11.6295 37756.4
11.6449 37670.2
11.6602 37579.9
11.6755 37504.5
11.6908 37431.1
11.7061 37389.2
11.7214 37362.7
11.7368 37383
11.7521 37391.2
11.7674 37417.4
11.7827 37446.2
11.798 37495.2
11.8133 37490.8
11.8287 37449.1
11.844 37432.8
11.8593 37417.4
11.8746 37401.3
11.8899 37396.2
11.9052 37381.5
11.9206 37369
11.9359 37368.9
11.9512 37394.6
11.9665 37420.3
11.9818 37462.8
11.9971 37497.7
12.0125 37527.7
12.0278 37528.5
12.0431 37530.7
12.0584 37526.8
12.0737 37516.8
12.089 37500.1
12.1044 37490.9
12.1197 37460.5
12.135 37464.9
12.1503 37471.4
12.1656 37459.2
12.1809 37434.7
12.1962 37422.8
12.2116 37407.7
12.2269 37401.5
12.2422 37391.7
12.2575 37390.8
12.2728 37365.8
12.2881 37336.4
12.3035 37323.2
12.3188 37312.1
12.3341 37279.7
12.3494 37254.4
12.3647 37245.8
12.38 37234.9
12.3954 37213.8
12.4107 37204.8
12.426 37194.8
12.4413 37181.2
12.4566 37175.7
12.4719 37141.1
12.4873 37088.5
12.5026 37016.9
12.5179 36960.5
12.5332 36912.2
12.5485 36877.1
12.5638 36834.8
12.5792 36786.2
12.5945 36739.7
12.6098 36710.5
12.6251 36695.2
12.6404 36683.3
12.6557 36675.1
12.6711 36682.5
12.6864 36669.6
12.7017 36634.4
12.717 36619.9
12.7323 36622.2
12.7476 36636.8
12.763 36692.2
12.7783 36774.9
12.7936 36855.8
12.8089 36922.5
12.8242 37003.6
12.8395 37070.7
12.8549 37125.3
12.8702 37118.5
12.8855 37056.3
12.9008 36996.3
12.9161 36928.9
12.9314 36844.7
12.9467 36756.9
12.9621 36705.9
12.9774 36656.4
12.9927 36616.8
13.008 36584.6
13.0233 36548.9
13.0386 36527.7
13.054 36517.3
13.0693 36495.1
13.0846 36485.7
13.0999 36485.8
13.1152 36476
13.1305 36448.9
13.1459 36419.5
13.1612 36418
13.1765 36428.3
13.1918 36442.4
13.2071 36450.1
13.2224 36472.5
13.2378 36495.6
13.2531 36517.7
13.2684 36565.6
13.2837 36577.8
13.299 36592.2
13.3143 36629.8
13.3297 36672.8
13.345 36727.9
13.3603 36804.5
13.3756 36907.7
13.3909 37046.3
13.4062 37211.1
13.4216 37395.1
13.4369 37584.2
13.4522 37752.2
13.4675 37945.2
13.4828 38097.2
13.4981 38211.6
13.5135 38306.9
13.5288 38366.4
13.5441 38389.1
13.5594 38429.3
13.5747 38494.1
13.59 38545.9
13.6054 38567.7
13.6207 38531.4
13.636 38429.8
13.6513 38279.4
13.6666 38102.7
13.6819 37930
13.6973 37734.1
13.7126 37540.4
13.7279 37399.6
13.7432 37290
13.7585 37206.5
13.7738 37128.7
13.7891 37063
13.8045 36989.1
13.8198 36931.9
13.8351 36890.1
13.8504 36865.7
13.8657 36835
13.881 36807.4
13.8964 36806.9
13.9117 36832.9
13.927 36848
13.9423 36867
13.9576 36916.9
13.9729 36922.9
13.9883 36904.3
14.0036 36832.3
14.0189 36763.1
14.0342 36639.7
14.0495 36519.7
14.0648 36384.9
14.0802 36252.3
14.0955 36131.7
14.1108 36014.8
14.1261 35887.5
14.1414 35810.2
14.1567 35735.6
14.1721 35639.9
14.1874 35599
14.2027 35534.3
14.218 35487.7
14.2333 35464.1
14.2486 35440.4
14.264 35398.2
14.2793 35338.2
14.2946 35263.4
14.3099 35171.9
14.3252 35106.3
14.3405 35087.8
14.3559 35084.2
14.3712 35084
14.3865 35092.4
14.4018 35075.9
14.4171 35064.6
14.4324 35053.6
14.4478 35026.6
14.4631 34990.3
14.4784 34990.5
14.4937 34988.1
14.509 35009.9
14.5243 35037.7
14.5397 35089.5
14.555 35136.9
14.5703 35165.5
14.5856 35148.6
14.6009 35131.5
14.6162 35125.6
14.6315 35111
14.6469 35091.9
14.6622 35098
14.6775 35072
14.6928 35021.9
14.7081 34967.5
14.7234 34934.4
14.7388 34885.3
14.7541 34821.7
14.7694 34736.2
14.7847 34680.9
14.8 34656.7
14.8153 34615.6
14.8307 34556.4
14.846 34482.9
14.8613 34424
14.8766 34391
14.8919 34342.8
14.9072 34296.2
14.9226 34281.8
14.9379 34254.8
14.9532 34216.8
14.9685 34201.4
14.9838 34181.4
14.9991 34155.7
15.0145 34124
15.0298 34101.6
15.0451 34114.7
15.0604 34119.9
15.0757 34115
15.091 34103.6
15.1064 34104.1
15.1217 34094.3
15.137 34049.5
15.1523 34047
15.1676 34088.8
15.1829 34114.8
15.1983 34128.2
15.2136 34135.2
15.2289 34141.7
15.2442 34161.7
15.2595 34180.2
15.2748 34208.8
15.2902 34226.4
15.3055 34246.4
15.3208 34304.5
15.3361 34380
15.3514 34436.6
15.3667 34455.2
15.382 34464.1
15.3974 34482.7
15.4127 34497.5
15.428 34489.3
15.4433 34463.7
15.4586 34426.4
15.4739 34376.8
15.4893 34334.1
15.5046 34293.2
15.5199 34252.9
15.5352 34227.1
15.5505 34182.7
15.5658 34130.1
15.5812 34112.4
15.5965 34124
15.6118 34110.7
15.6271 34088.5
15.6424 34058.5
15.6577 34027.2
15.6731 34008.4
15.6884 33986.9
15.7037 33980
15.719 33960.8
15.7343 33939.1
15.7496 33905.9
15.765 33865.1
15.7803 33864.7
15.7956 33857.9
15.8109 33837
15.8262 33789
15.8415 33720.8
15.8569 33668.1
15.8722 33615.5
15.8875 33562.3
15.9028 33514.3
15.9181 33489.5
15.9334 33439.8
15.9488 33391.1
15.9641 33380.8
15.9794 33384.3
15.9947 33372.1
16.01 33322.1
16.0253 33300.7
16.0407 33272.3
16.056 33250.3
16.0713 33234.8
16.0866 33212
16.1019 33209.3
16.1172 33224
16.1326 33240.7
16.1479 33237.8
16.1632 33234.4
16.1785 33208.4
16.1938 33171.8
16.2091 33154.9
16.2244 33132.5
16.2398 33111.3
16.2551 33123.2
16.2704 33139
16.2857 33158.9
16.301 33135.5
16.3163 33098.2
16.3317 33077.9
16.347 33070.1
16.3623 33067
16.3776 33050.2
16.3929 33028.9
16.4082 33017
16.4236 33013.2
16.4389 32997.4
16.4542 32947.7
16.4695 32898
16.4848 32862.1
16.5001 32865.3
16.5155 32870.9
16.5308 32841.3
16.5461 32810.7
16.5614 32805.6
16.5767 32783.8
16.592 32747.4
16.6074 32698.6
16.6227 32671.7
16.638 32655.7
16.6533 32650.5
16.6686 32628.8
16.6839 32589.5
16.6993 32562.3
16.7146 32515.6
16.7299 32521.4
16.7452 32543.2
16.7605 32510.6
16.7758 32493.7
16.7912 32484.4
16.8065 32460.2
16.8218 32422.6
16.8371 32411.5
16.8524 32384.3
16.8677 32391.8
16.8831 32391.8
16.8984 32378.7
16.9137 32364.5
16.929 32362.6
16.9443 32394.8
16.9596 32384.1
16.9749 32377.8
16.9903 32344.1
17.0056 32310.5
17.0209 32267.9
17.0362 32238
17.0515 32206
17.0668 32171.2
17.0822 32192.4
17.0975 32174.7
17.1128 32118
17.1281 32093.8
17.1434 32099.8
17.1587 32110.8
17.1741 32105.3
17.1894 32078.1
17.2047 32065.1
17.22 32021.2
17.2353 32005.9
17.2506 32005.2
17.266 31957.6
17.2813 31923.1
17.2966 31919.3
17.3119 31890.8
17.3272 31868.2
17.3425 31881.2
17.3579 31903.5
17.3732 31902
17.3885 31902.8
17.4038 31892
17.4191 31878.5
17.4344 31869.1
17.4498 31864
17.4651 31893
17.4804 31926.5
17.4957 31911.8
17.511 31871.6
17.5263 31860.8
17.5417 31852.9
17.557 31841.2
17.5723 31871.1
17.5876 31871.8
17.6029 31855.6
17.6182 31836.1
17.6336 31832.5
17.6489 31846.2
17.6642 31859.6
17.6795 31886.6
17.6948 31914.9
17.7101 31897.7
17.7255 31881.8
17.7408 31867.7
17.7561 31850.6
17.7714 31844
17.7867 31830.1
17.802 31816.1
17.8173 31812.6
17.8327 31794.7
17.848 31766.7
17.8633 31763.1
17.8786 31742
17.8939 31743.6
17.9092 31767.7
17.9246 31772.4
17.9399 31749
17.9552 31717.4
17.9705 31710.6
17.9858 31687.3
18.0011 31658.7
18.0165 31660.5
18.0318 31640.1
18.0471 31617.3
18.0624 31626.8
18.0777 31596.9
18.093 31566.5
18.1084 31565.4
18.1237 31568.3
18.139 31548.5
18.1543 31525.8
18.1696 31542.5
18.1849 31521.2
18.2003 31470.1
18.2156 31475.9
18.2309 31500.5
18.2462 31504.2
18.2615 31501
18.2768 31482.1
18.2922 31480.7
18.3075 31527
18.3228 31568
18.3381 31575.7
18.3534 31591.4
18.3687 31628.1
18.3841 31651.8
18.3994 31671
18.4147 31670.5
18.43 31662.7
18.4453 31643.9
18.4606 31617.6
18.476 31603.3
18.4913 31573.7
18.5066 31548.9
18.5219 31526.5
18.5372 31502.5
18.5525 31479.3
18.5679 31433.8
18.5832 31397.4
18.5985 31413.7
18.6138 31412.9
18.6291 31396.5
18.6444 31344.6
18.6597 31308.4
18.6751 31299.8
18.6904 31313.5
18.7057 31296.7
18.721 31248.1
18.7363 31206.4
18.7516 31247.3
18.767 31286
18.7823 31246
18.7976 31176.8
18.8129 31175.9
18.8282 31189.2
18.8435 31135.4
18.8589 31090.1
18.8742 31066.3
18.8895 31031.4
18.9048 31008.3
18.9201 30972.8
18.9354 30944.2
18.9508 30933.9
18.9661 30919.3
18.9814 30892
18.9967 30854.8
19.012 30809.2
19.0273 30808.9
19.0427 30822.5
19.058 30816.4
19.0733 30796.8
19.0886 30762.6
19.1039 30725.9
19.1192 30706.2
19.1346 30722.8
19.1499 30703.8
19.1652 30694.7
19.1805 30690
19.1958 30691.3
19.2111 30702.1
19.2265 30711.5
19.2418 30711.2
19.2571 30694.1
19.2724 30635.6
19.2877 30611.2
19.303 30605.2
19.3184 30573.1
19.3337 30524.8
19.349 30528.1
19.3643 30520.5
19.3796 30482.7
19.3949 30473.3
19.4102 30490.3
19.4256 30487
19.4409 30452.3
19.4562 30426.3
19.4715 30412.9
19.4868 30394
19.5021 30375.8
19.5175 30362.5
19.5328 30359.4
19.5481 30318.5
19.5634 30302
19.5787 30316.6
19.594 30294.4
19.6094 30289.3
19.6247 30276.8
19.64 30244.1
19.6553 30257.1
19.6706 30246.5
19.6859 30206.7
19.7013 30194.1
19.7166 30207.7
19.7319 30188
19.7472 30172.2
19.7625 30156.4
19.7778 30151.6
19.7932 30165.5
19.8085 30158.6
19.8238 30155.2
19.8391 30126.5
19.8544 30064.3
19.8697 30055.9
19.8851 30071.7
19.9004 30089.1
19.9157 30057.6
19.931 30027.8
19.9463 30050.4
19.9616 30013.6
19.977 29961.7
19.9923 30025.8
20.0076 30059.5
20.0229 30041.9
20.0382 30020.8
20.0535 29979.2
20.0689 29955.3
20.0842 29939.3
20.0995 29926
20.1148 29912.4
20.1301 29899.4
20.1454 29898.3
20.1608 29908.8
20.1761 29934.4
20.1914 29956.9
20.2067 29927.9
20.222 29886.8
20.2373 29930.8
20.2526 29975.3
20.268 29958.1
20.2833 29951.2
20.2986 29978.1
20.3139 29957.4
20.3292 29895.2
20.3445 29870.4
20.3599 29859.6
20.3752 29861.3
20.3905 29868.4
20.4058 29886.3
20.4211 29906
20.4364 29940.4
20.4518 29950.7
20.4671 29950
20.4824 29980.2
20.4977 29954
20.513 29928.2
20.5283 29918.6
20.5437 29902.3
20.559 29887.9
20.5743 29880.5
20.5896 29894.3
20.6049 29917.2
20.6202 29919
20.6356 29907.3
20.6509 29912.7
20.6662 29900.6
20.6815 29856.7
20.6968 29793.4
20.7121 29781
20.7275 29788.6
20.7428 29815.4
20.7581 29816.8
20.7734 29799.8
20.7887 29802.8
20.804 29809.1
20.8194 29851.2
20.8347 29864.1
20.85 29891.1
20.8653 29864
20.8806 29818.5
20.8959 29780.8
20.9113 29771.9
20.9266 29776.2
20.9419 29767.7
20.9572 29760.8
20.9725 29754.4
20.9878 29734.6
21.0031 29743
21.0185 29811.4
21.0338 29815.7
21.0491 29785.4
21.0644 29742.7
21.0797 29719.7
21.095 29738.7
21.1104 29787.2
21.1257 29781.1
21.141 29733.3
21.1563 29739.2
21.1716 29773.6
21.1869 29793.4
21.2023 29772
21.2176 29733.2
21.2329 29735.1
21.2482 29734
21.2635 29714.6
21.2788 29747.1
21.2942 29759.4
21.3095 29702.6
21.3248 29709.9
21.3401 29733.5
21.3554 29731.7
21.3707 29694
21.3861 29712.2
21.4014 29652.4
21.4167 29635.2
21.432 29686.1
21.4473 29717.5
21.4626 29735
21.478 29707.9
21.4933 29683.7
21.5086 29688.3
21.5239 29726.5
21.5392 29742.7
21.5545 29701.3
21.5699 29664.7
21.5852 29652.6
21.6005 29659.9
21.6158 29656.7
21.6311 29588.9
21.6464 29597.8
21.6618 29634.7
21.6771 29675.8
21.6924 29684.8
21.7077 29680.8
21.723 29701.5
21.7383 29698
21.7537 29690.4
21.769 29705
21.7843 29699.3
21.7996 29668.4
21.8149 29732.5
21.8302 29721.6
21.8455 29698.3
21.8609 29653
21.8762 29623.1
21.8915 29671.8
21.9068 29711.2
21.9221 29719.1
21.9374 29751.4
21.9528 29771.6
21.9681 29708.9
21.9834 29709
21.9987 29755.4
22.014 29726.6
22.0293 29724.8
22.0447 29772.8
22.06 29786.2
22.0753 29752.7
22.0906 29722.4
22.1059 29732.9
22.1212 29783.3
22.1366 29831.5
22.1519 29856.5
22.1672 29842.5
22.1825 29804.2
22.1978 29859.3
22.2131 29866.5
22.2285 29875.8
22.2438 29866.3
22.2591 29863.6
22.2744 29873.8
22.2897 29878.2
22.305 29913
22.3204 29911
22.3357 29878.6
22.351 29853.8
22.3663 29859.3
22.3816 29913.2
22.3969 29955.2
22.4123 29936.1
22.4276 29917.6
22.4429 29892.8
22.4582 29909.2
22.4735 29961
22.4888 29932.8
22.5042 29913.8
22.5195 29967.2
22.5348 29952.1
22.5501 29974.6
22.5654 29958.9
22.5807 29980.3
22.596 29968.1
22.6114 29955.3
22.6267 29954
22.642 29948.8
22.6573 29922.8
22.6726 29940.3
22.6879 29994.7
22.7033 29984.1
22.7186 29974.8
22.7339 30015.8
22.7492 30007.6
22.7645 30006.1
22.7798 29981.5
22.7952 29968.3
22.8105 29959.8
22.8258 29984.3
22.8411 29982.8
22.8564 30021.9
22.8717 30058
22.8871 30045.8
22.9024 30093.6
22.9177 30049.5
22.933 30030
22.9483 30057.6
22.9636 30088.5
22.979 30100.4
22.9943 30050.2
