# xPDFsuite Configuration #
[PDF]
wavelength = 0.1
dataformat = QA
inputfile = B3_Bronze-3nm_ss_30.chi
backgroundfile = B3_Li-bkg_ss.chi
mode = xray
bgscale = 0.98705
composition = Ti O2
outputtype = iq
qmaxinst = 23.0
qmin = 0.1
qmax = 23.0
rmax = 30.0
rmin = 0.0
rstep = 0.01
rpoly = 0.9

[Misc]
inputdir = E:/Beamtime/PETRA-III_September-2019/BeamData/processed/Run1/B3/chi/chi_w_sigmas/chi_scaled
savedir = E:/Beamtime/PETRA-III_September-2019/BeamData/processed/Run1/B3
backgroundfilefull = E:/Beamtime/PETRA-III_September-2019/BeamData/processed/Run1/B3/chi/chi_w_sigmas/chi_scaled/B3_Li-bkg_ss.chi

#### start data
#S 1
#L Q($\AA^{-1}$)  intensity(a.u.)
0.111649 0
0.126965 0
0.142282 0
0.157598 0
0.172914 0
0.188231 0
0.203547 0
0.218864 0
0.23418 0
0.249496 0
0.264813 0
0.280129 0
0.295445 0
0.310762 0
0.326078 0
0.341394 0
0.356711 0
0.372027 0
0.387343 0
0.40266 0
0.417976 0
0.433292 0
0.448609 0
0.463925 0
0.479241 0
0.494558 0
0.509874 0
0.525191 0
0.540507 0
0.555823 0
0.57114 0
0.586456 0
0.601772 0
0.617089 0
0.632405 0
0.647721 0
0.663038 0
0.678354 0
0.69367 0
0.708987 0
0.724303 0
0.739619 0
0.754936 0
0.770252 0
0.785568 0
0.800885 0
0.816201 0
0.831518 0
0.846834 0
0.86215 1.43269
0.877467 102862
0.892783 103442
0.908099 103979
0.923416 105281
0.938732 107224
0.954048 109077
0.969365 110048
0.984681 109861
0.999997 107925
1.01531 104856
1.03063 99717.6
1.04595 93550.2
1.06126 86105.7
1.07658 77498.1
1.0919 69012.2
1.10721 59525.7
1.12253 51036
1.13784 42558.1
1.15316 34868.8
1.16848 28191.3
1.18379 22132.7
1.19911 17316.7
1.21443 12966.9
1.22974 9543.47
1.24506 6885.73
1.26038 4912.74
1.27569 3639.71
1.29101 2857.22
1.30632 2688.23
1.32164 3165.49
1.33696 4077.13
1.35227 5340.71
1.36759 7040.6
1.38291 8808.32
1.39822 10903.6
1.41354 12858.5
1.42886 14765.1
1.44417 16414.4
1.45949 17974.1
1.4748 19472.1
1.49012 21164.7
1.50544 23282.9
1.52075 26017.4
1.53607 29840.3
1.55139 34972.8
1.5667 41121.2
1.58202 49228.6
1.59733 58190.8
1.61265 68285.6
1.62797 78925.2
1.64328 89207.9
1.6586 99364.6
1.67392 107969
1.68923 115087
1.70455 120289
1.71987 123642
1.73518 125496
1.7505 126150
1.76581 126454
1.78113 126118
1.79645 125721
1.81176 125061
1.82708 124176
1.8424 122805
1.85771 121257
1.87303 119225
1.88835 116911
1.90366 114306
1.91898 111563
1.93429 108836
1.94961 106382
1.96493 104351
1.98024 102775
1.99556 101270
2.01088 99774.1
2.02619 97674.5
2.04151 94977.7
2.05683 91427.5
2.07214 87416.2
2.08746 83126.3
2.10277 78634.8
2.11809 74567.4
2.13341 70741.6
2.14872 67469.3
2.16404 64713.1
2.17936 62466.4
2.19467 60772.1
2.20999 59409.2
2.22531 58401
2.24062 57507.2
2.25594 56720.3
2.27125 55944.8
2.28657 55139.3
2.30189 54404.3
2.3172 53578.1
2.33252 52804.2
2.34784 52033.6
2.36315 51414.3
2.37847 50965.3
2.39379 50516.2
2.4091 50462.3
2.42442 50355.4
2.43973 50585.7
2.45505 50772
2.47037 50970.6
2.48568 51314.9
2.501 51650.4
2.51632 51988.8
2.53163 52145
2.54695 52326.8
2.56226 52635.7
2.57758 52986.3
2.5929 53407.6
2.60821 53989.5
2.62353 54151.2
2.63885 54224
2.65416 54069.4
2.66948 54052.5
2.6848 54216.8
2.70011 54562.2
2.71543 55399.8
2.73074 56517.6
2.74606 58137.9
2.76138 60303.9
2.77669 63076.1
2.79201 66704.2
2.80733 70969.9
2.82264 76389.4
2.83796 82865.9
2.85328 90466.4
2.86859 99551.3
2.88391 109393
2.89922 120641
2.91454 132099
2.92986 143612
2.94517 154536
2.96049 164095
2.97581 172287
2.99112 178170
3.00644 181816
3.02176 183010
3.03707 182036
3.05239 179073
3.0677 174634
3.08302 169026
3.09834 162868
3.11365 156560
3.12897 150320
3.14429 144431
3.1596 138695
3.17492 133520
3.19024 128258
3.20555 123450
3.22087 118673
3.23618 113835
3.2515 109050
3.26682 104131
3.28213 99307.6
3.29745 94340.9
3.31277 89688.1
3.32808 85303.9
3.3434 81223.5
3.35872 77808.1
3.37403 74772
3.38935 72461.4
3.40466 70642.7
3.41998 69331
3.4353 68396.7
3.45061 67771.3
3.46593 67507.8
3.48125 67401.5
3.49656 67437.4
3.51188 67500.6
3.52719 67622.9
3.54251 67774.3
3.55783 67739.3
3.57314 67605.8
3.58846 67308.3
3.60378 67000.4
3.61909 66668.9
3.63441 66305.9
3.64973 66073.1
3.66504 65875.3
3.68036 65977.4
3.69567 66413.5
3.71099 67245.8
3.72631 68496.5
3.74162 70099.5
3.75694 71976.9
3.77226 73963.3
3.78757 75898.1
3.80289 77660.5
3.81821 79075.5
3.83352 80045.8
3.84884 80535.5
3.86415 80527
3.87947 79985.5
3.89479 79069.5
3.9101 77831.4
3.92542 76414.3
3.94074 75066.4
3.95605 73808
3.97137 72832.9
3.98669 72034.3
4.002 71547.6
4.01732 71344.4
4.03263 71460.1
4.04795 71821.3
4.06327 72522.4
4.07858 73479.7
4.0939 74743.8
4.10922 76235.6
4.12453 77954.5
4.13985 79863.8
4.15517 81781.8
4.17048 83718.5
4.1858 85500
4.20111 87134.7
4.21643 88606.6
4.23175 89808.8
4.24706 90799
4.26238 91519.4
4.2777 92147.3
4.29301 92637.8
4.30833 93019.2
4.32365 93362.5
4.33896 93579
4.35428 93685.7
4.36959 93408.5
4.38491 92751.6
4.40023 91620.3
4.41554 89871.5
4.43086 87598.2
4.44618 84756.5
4.46149 81445.2
4.47681 77905.9
4.49213 74303
4.50744 70831.7
4.52276 67658.6
4.53807 64783.2
4.55339 62335.7
4.56871 60182.6
4.58402 58433.1
4.59934 56976.8
4.61466 55854.5
4.62997 55021.9
4.64529 54444
4.6606 54111.7
4.67592 53990.6
4.69124 54029.8
4.70655 54300.3
4.72187 54700.2
4.73719 55267.9
4.7525 55931.8
4.76782 56674.9
4.78314 57528.2
4.79845 58394.3
4.81377 59285.6
4.82908 60120.8
4.8444 60955.9
4.85972 61760.5
4.87503 62550.3
4.89035 63288.3
4.90567 64062.9
4.92098 64870.1
4.9363 65833.7
4.95162 66956.2
4.96693 68278.6
4.98225 69863.3
4.99756 71919.3
5.01288 74219.2
5.0282 76554.9
5.04351 78953
5.05883 80909.9
5.07415 82414.8
5.08946 83321
5.10478 83457.1
5.1201 83145
5.13541 82197.6
5.15073 81036.5
5.16604 79588.8
5.18136 78164.6
5.19668 76948.4
5.21199 76063.9
5.22731 75423
5.24263 75013
5.25794 74571.6
5.27326 74186.9
5.28858 73771.1
5.30389 73420.1
5.31921 73189.6
5.33452 73047.5
5.34984 73011.2
5.36516 72855.5
5.38047 72510.1
5.39579 71759.3
5.41111 70599.5
5.42642 68904.1
5.44174 66842.9
5.45706 64282.8
5.47237 61503.7
5.48769 58537.4
5.503 55735.7
5.51832 53335.2
5.53364 51241.8
5.54895 49672.4
5.56427 48556
5.57959 47815.9
5.5949 47443
5.61022 47202.6
5.62553 47081.9
5.64085 46915.4
5.65617 46771.6
5.67148 46655
5.6868 46594.8
5.70212 46486.7
5.71743 46357.6
5.73275 46301.4
5.74807 46253.1
5.76338 46298
5.7787 46430.8
5.79401 46721.8
5.80933 47144
5.82465 47660.7
5.83996 48256.6
5.85528 48929.1
5.8706 49673.5
5.88591 50461.8
5.90123 51255.2
5.91655 51984.9
5.93186 52648.7
5.94718 53170
5.96249 53508.5
5.97781 53686.8
5.99313 53668.9
6.00844 53490.1
6.02376 53100.8
6.03908 52590.6
6.05439 51981.1
6.06971 51356.7
6.08503 50734.2
6.10034 50153.3
6.11566 49659.8
6.13097 49214.5
6.14629 48861.5
6.16161 48604.8
6.17692 48454.6
6.19224 48422.4
6.20756 48468
6.22287 48652.5
6.23819 48912.1
6.25351 49230.3
6.26882 49520.4
6.28414 49761.9
6.29945 49914.2
6.31477 49930.4
6.33009 49799.5
6.3454 49553.3
6.36072 49223.4
6.37604 48862.5
6.39135 48478.3
6.40667 48152.9
6.42199 47913.1
6.4373 47791.8
6.45262 47770.2
6.46793 47857.2
6.48325 48030.6
6.49857 48250.7
6.51388 48524.6
6.5292 48837.7
6.54452 49191
6.55983 49562.6
6.57515 49982.3
6.59046 50414.8
6.60578 50886.3
6.6211 51390.8
6.63641 51913.2
6.65173 52422.8
6.66705 52891.4
6.68236 53329.8
6.69768 53701.4
6.713 54011.6
6.72831 54237.6
6.74363 54365.4
6.75894 54412.3
6.77426 54397.2
6.78958 54315.8
6.80489 54175.5
6.82021 53954.6
6.83553 53678.7
6.85084 53339.4
6.86616 52927.7
6.88148 52455
6.89679 51986.3
6.91211 51497.4
6.92742 50996.7
6.94274 50538.3
6.95806 50079.5
6.97337 49651.5
6.98869 49258
7.00401 48936.4
7.01932 48670.2
7.03464 48407.3
7.04996 48187.6
7.06527 48023.2
7.08059 47937
7.0959 47889.3
7.11122 47845.3
7.12654 47827.6
7.14185 47824.1
7.15717 47833.6
7.17249 47836.2
7.1878 47817.7
7.20312 47814.3
7.21844 47827.4
7.23375 47871.2
7.24907 47939.1
7.26438 48026.6
7.2797 48115.5
7.29502 48172.5
7.31033 48199.3
7.32565 48207.8
7.34097 48197.5
7.35628 48169.4
7.3716 48103.5
7.38692 47997.1
7.40223 47850.8
7.41755 47688.3
7.43286 47526.9
7.44818 47336
7.4635 47165.4
7.47881 46973.1
7.49413 46803.3
7.50945 46603.9
7.52476 46400.5
7.54008 46167.3
7.55539 45891.3
7.57071 45594.1
7.58603 45222.1
7.60134 44847.3
7.61666 44468.5
7.63198 44141.9
7.64729 43828.3
7.66261 43569.1
7.67793 43392.9
7.69324 43332.3
7.70856 43364.2
7.72387 43491.8
7.73919 43724.5
7.75451 44014.4
7.76982 44329.3
7.78514 44590.9
7.80046 44806.6
7.81577 44884.7
7.83109 44826.6
7.84641 44633.1
7.86172 44319.8
7.87704 43878.1
7.89235 43382.4
7.90767 42878.9
7.92299 42456.4
7.9383 42107.5
7.95362 41838.9
7.96894 41630.6
7.98425 41440.2
7.99957 41315.5
8.01489 41239.5
8.0302 41194.3
8.04552 41128
8.06083 41097.2
8.07615 41089.3
8.09147 41094.1
8.10678 41115.5
8.1221 41113.1
8.13742 41156.4
8.15273 41191.2
8.16805 41241.8
8.18337 41261.4
8.19868 41302.1
8.214 41351.5
8.22931 41410.6
8.24463 41455.8
8.25995 41446.7
8.27526 41381.1
8.29058 41272.9
8.3059 41156.8
8.32121 41008.7
8.33653 40853.8
8.35185 40656.9
8.36716 40454
8.38248 40285.4
8.39779 40159.6
8.41311 40060.5
8.42843 39988.7
8.44374 39966.5
8.45906 39972.4
8.47438 39995.2
8.48969 40041.6
8.50501 40120.1
8.52032 40212.5
8.53564 40334
8.55096 40485.2
8.56627 40621.6
8.58159 40804.8
8.59691 40995.5
8.61222 41212.1
8.62754 41413.1
8.64286 41610.2
8.65817 41785.4
8.67349 41941.1
8.6888 42114.6
8.70412 42303.7
8.71944 42550.4
8.73475 42859.4
8.75007 43217.4
8.76539 43636.5
8.7807 44064.9
8.79602 44459.5
8.81134 44797.3
8.82665 45013.7
8.84197 45095.3
8.85728 45004.1
8.8726 44834.6
8.88792 44631
8.90323 44454.6
8.91855 44370.9
8.93387 44402.1
8.94918 44553
8.9645 44709.8
8.97982 44888
8.99513 44975
9.01045 44997.5
9.02576 44857.3
9.04108 44562.8
9.0564 44087.4
9.07171 43500.5
9.08703 42863.2
9.10235 42206.5
9.11766 41608.2
9.13298 41075.5
9.1483 40621.5
9.16361 40243.9
9.17893 39956.6
9.19424 39707.7
9.20956 39513.9
9.22488 39334.4
9.24019 39183.3
9.25551 39032.8
9.27083 38890.3
9.28614 38746.2
9.30146 38617.1
9.31678 38477.3
9.33209 38348.8
9.34741 38197.1
9.36272 38040.5
9.37804 37869.4
9.39336 37746.7
9.40867 37633.4
9.42399 37574.7
9.43931 37547.5
9.45462 37551.5
9.46994 37578
9.48525 37649.1
9.50057 37782.5
9.51589 37963
9.5312 38122.8
9.54652 38255.7
9.56184 38339.5
9.57715 38365.9
9.59247 38306
9.60779 38186.5
9.6231 38008
9.63842 37820.8
9.65373 37650.7
9.66905 37493.9
9.68437 37355.7
9.69968 37247.8
9.715 37203
9.73032 37200.6
9.74563 37224.6
9.76095 37279.8
9.77627 37365.1
9.79158 37445
9.8069 37512.9
9.82221 37568.3
9.83753 37593.6
9.85285 37602
9.86816 37613
9.88348 37621.2
9.8988 37653.9
9.91411 37676.4
9.92943 37745.5
9.94475 37829.6
9.96006 37949.6
9.97538 38068.8
9.99069 38239
10.006 38379
10.0213 38556.8
10.0366 38737.5
10.052 38941.4
10.0673 39130.2
10.0826 39317.8
10.0979 39534.1
10.1132 39749.4
10.1285 40031.9
10.1439 40313.3
10.1592 40597.7
10.1745 40783.6
10.1898 40905.2
10.2051 40921.7
10.2204 40889.8
10.2358 40818.2
10.2511 40759.5
10.2664 40727.5
10.2817 40796.9
10.297 40890.8
10.3123 41063.3
10.3277 41224
10.343 41345.4
10.3583 41327.3
10.3736 41252.8
10.3889 41134.6
10.4042 40952.5
10.4196 40696.5
10.4349 40415.1
10.4502 40122.4
10.4655 39886.5
10.4808 39679.2
10.4961 39538.9
10.5115 39426
10.5268 39373.1
10.5421 39379.1
10.5574 39435
10.5727 39502.9
10.588 39563.1
10.6033 39591.6
10.6187 39591.8
10.634 39539.2
10.6493 39444.7
10.6646 39290.6
10.6799 39102.7
10.6952 38901.1
10.7106 38701
10.7259 38519.4
10.7412 38370
10.7565 38270.9
10.7718 38236.8
10.7871 38210.2
10.8025 38215.1
10.8178 38224
10.8331 38217
10.8484 38148.6
10.8637 38019.4
10.879 37843.6
10.8944 37630.2
10.9097 37381
10.925 37119.2
10.9403 36837.8
10.9556 36603.7
10.9709 36416.3
10.9863 36244.9
11.0016 36092.6
11.0169 35960.4
11.0322 35818.6
11.0475 35697.4
11.0628 35545.1
11.0782 35382.5
11.0935 35203.4
11.1088 35024.3
11.1241 34865.8
11.1394 34740.3
11.1547 34646.2
11.1701 34571.1
11.1854 34510.8
11.2007 34428.7
11.216 34333.8
11.2313 34265.6
11.2466 34204.8
11.262 34159.4
11.2773 34116.2
11.2926 34092
11.3079 34078.1
11.3232 34076
11.3385 34056.1
11.3538 34033.6
11.3692 34006.8
11.3845 33997.7
11.3998 33990.3
11.4151 33987.5
11.4304 33983.1
11.4457 33981
11.4611 34015.3
11.4764 34034.8
11.4917 34069.7
11.507 34105.8
11.5223 34196.9
11.5376 34231.5
11.553 34276.9
11.5683 34290.2
11.5836 34301.3
11.5989 34272.8
11.6142 34244.3
11.6295 34187.5
11.6449 34116.9
11.6602 34015.9
11.6755 33895.2
11.6908 33781.9
11.7061 33721.7
11.7214 33679.8
11.7368 33687.1
11.7521 33692.7
11.7674 33734.8
11.7827 33770
11.798 33818.7
11.8133 33814.5
11.8287 33780.2
11.844 33722.9
11.8593 33664.3
11.8746 33622.5
11.8899 33577.2
11.9052 33522.9
11.9206 33472.4
11.9359 33432.4
11.9512 33406.5
11.9665 33378.3
11.9818 33354.2
11.9971 33348.8
12.0125 33364.6
12.0278 33354.7
12.0431 33325.2
12.0584 33264.4
12.0737 33196.6
12.089 33164.6
12.1044 33137
12.1197 33079.9
12.135 33041.6
12.1503 33030.8
12.1656 33016.3
12.1809 32998.4
12.1962 32975.6
12.2116 32960.8
12.2269 32953.9
12.2422 32944
12.2575 32956.6
12.2728 32942.9
12.2881 32945.3
12.3035 32951.2
12.3188 32956
12.3341 32941.9
12.3494 32934.4
12.3647 32938.7
12.38 32957.4
12.3954 32961.1
12.4107 32972.4
12.426 32976
12.4413 32970.3
12.4566 32986.6
12.4719 33016.4
12.4873 33026.4
12.5026 33009
12.5179 32989.7
12.5332 32987.9
12.5485 33003.5
12.5638 33024.7
12.5792 33030.8
12.5945 33030.7
12.6098 33011.8
12.6251 33023
12.6404 33056.7
12.6557 33067.2
12.6711 33084.1
12.6864 33068.3
12.7017 33035.2
12.717 33005.1
12.7323 33011.7
12.7476 33011.1
12.763 33028.6
12.7783 33080.6
12.7936 33157.9
12.8089 33231.7
12.8242 33282.8
12.8395 33315.4
12.8549 33350.4
12.8702 33318.4
12.8855 33229.5
12.9008 33143.3
12.9161 33032.6
12.9314 32935.6
12.9467 32816.9
12.9621 32761.9
12.9774 32719.5
12.9927 32699.4
13.008 32672.4
13.0233 32662.5
13.0386 32668.4
13.054 32687.4
13.0693 32702.9
13.0846 32714.9
13.0999 32732.1
13.1152 32739.9
13.1305 32753.8
13.1459 32743.3
13.1612 32743.2
13.1765 32718.8
13.1918 32687.2
13.2071 32669.7
13.2224 32676.3
13.2378 32697.4
13.2531 32714.3
13.2684 32757.6
13.2837 32779.3
13.299 32788.1
13.3143 32806.8
13.3297 32839.3
13.345 32884.1
13.3603 32937
13.3756 33023.5
13.3909 33139.2
13.4062 33269.9
13.4216 33426.7
13.4369 33597.9
13.4522 33775.6
13.4675 33905.8
13.4828 34028.2
13.4981 34141.4
13.5135 34196.6
13.5288 34200.4
13.5441 34206.6
13.5594 34238.2
13.5747 34277.6
13.59 34288.8
13.6054 34273.2
13.6207 34169
13.636 33990.4
13.6513 33801.5
13.6666 33634.5
13.6819 33459.1
13.6973 33272.8
13.7126 33104.5
13.7279 32960.2
13.7432 32839.4
13.7585 32732.2
13.7738 32637.7
13.7891 32569.4
13.8045 32519.7
13.8198 32475.8
13.8351 32427.5
13.8504 32394.6
13.8657 32371.4
13.881 32372.2
13.8964 32402.7
13.9117 32449.2
13.927 32463.6
13.9423 32476.4
13.9576 32485.6
13.9729 32474
13.9883 32446.2
14.0036 32412
14.0189 32341.9
14.0342 32237.8
14.0495 32124.2
14.0648 31993.6
14.0802 31853
14.0955 31717.5
14.1108 31598.2
14.1261 31469
14.1414 31395.2
14.1567 31314.6
14.1721 31244.9
14.1874 31194.7
14.2027 31165.5
14.218 31151.6
14.2333 31155.7
14.2486 31128.8
14.264 31094.4
14.2793 31066.6
14.2946 31035.5
14.3099 31011.1
14.3252 30967.4
14.3405 30914
14.3559 30894.2
14.3712 30876.4
14.3865 30868.9
14.4018 30826.8
14.4171 30790.3
14.4324 30757.8
14.4478 30727
14.4631 30696.1
14.4784 30700.4
14.4937 30727
14.509 30735
14.5243 30741.6
14.5397 30725.9
14.555 30701.9
14.5703 30707.1
14.5856 30717.2
14.6009 30703.9
14.6162 30700.5
14.6315 30643.7
14.6469 30560
14.6622 30520.8
14.6775 30491.7
14.6928 30441.5
14.7081 30394.9
14.7234 30390.3
14.7388 30378.6
14.7541 30342
14.7694 30292.6
14.7847 30240.7
14.8 30187.7
14.8153 30143.3
14.8307 30102.9
14.846 30082.1
14.8613 30061.7
14.8766 30032.3
14.8919 30006.3
14.9072 29964.2
14.9226 29919.4
14.9379 29879.6
14.9532 29862.8
14.9685 29870.4
14.9838 29869.3
14.9991 29860.4
15.0145 29822.1
15.0298 29830.9
15.0451 29831.7
15.0604 29823.9
15.0757 29849.6
15.091 29854.3
15.1064 29840.8
15.1217 29848.5
15.137 29840.1
15.1523 29835.1
15.1676 29857
15.1829 29884.1
15.1983 29902.8
15.2136 29927.5
15.2289 29962.2
15.2442 30031.3
15.2595 30070.1
15.2748 30078
15.2902 30106.9
15.3055 30146.5
15.3208 30180.7
15.3361 30198.1
15.3514 30208.5
15.3667 30213.9
15.382 30207
15.3974 30192.1
15.4127 30197.9
15.428 30182.4
15.4433 30145.8
15.4586 30106.1
15.4739 30063.7
15.4893 30010.8
15.5046 29981.5
15.5199 29966.2
15.5352 29959.2
15.5505 29919.4
15.5658 29866.6
15.5812 29830.5
15.5965 29841.9
15.6118 29842.1
15.6271 29834.5
15.6424 29812.9
15.6577 29790.2
15.6731 29779.5
15.6884 29753
15.7037 29749.3
15.719 29746.3
15.7343 29708.1
15.7496 29672.9
15.765 29613.1
15.7803 29573.2
15.7956 29559.6
15.8109 29523.5
15.8262 29498.8
15.8415 29455.3
15.8569 29419.8
15.8722 29370.6
15.8875 29313.1
15.9028 29269.6
15.9181 29258.6
15.9334 29203.5
15.9488 29154.5
15.9641 29132.9
15.9794 29133.8
15.9947 29126.6
16.01 29079.1
16.0253 29033.5
16.0407 29010
16.056 28990.7
16.0713 28981.8
16.0866 28952.6
16.1019 28965.7
16.1172 28976.8
16.1326 28978.2
16.1479 28980.5
16.1632 28980.8
16.1785 28974.1
16.1938 28955.1
16.2091 28955.3
16.2244 28946.6
16.2398 28918.5
16.2551 28938.8
16.2704 28991
16.2857 29000.6
16.301 28975.5
16.3163 28969.9
16.3317 28969.6
16.347 28972.1
16.3623 28958.9
16.3776 28930.4
16.3929 28873
16.4082 28814.3
16.4236 28782.6
16.4389 28769.5
16.4542 28759.8
16.4695 28742.7
16.4848 28727.3
16.5001 28712.5
16.5155 28695.9
16.5308 28665.2
16.5461 28625.2
16.5614 28576.3
16.5767 28545.8
16.592 28512.2
16.6074 28453.6
16.6227 28425.2
16.638 28390.6
16.6533 28387.8
16.6686 28369.6
16.6839 28314.7
16.6993 28263.7
16.7146 28219.2
16.7299 28228.9
16.7452 28251.4
16.7605 28241
16.7758 28219.4
16.7912 28158.9
16.8065 28124.9
16.8218 28113.2
16.8371 28097.7
16.8524 28083.6
16.8677 28092.6
16.8831 28056.9
16.8984 28026.5
16.9137 27997.6
16.929 27992.6
16.9443 28009.8
16.9596 28000.9
16.9749 27993.3
16.9903 27960.2
17.0056 27913.3
17.0209 27881.7
17.0362 27873.4
17.0515 27863
17.0668 27832.6
17.0822 27833.1
17.0975 27820.4
17.1128 27766.2
17.1281 27703.1
17.1434 27674.1
17.1587 27670.1
17.1741 27667.6
17.1894 27665.1
17.2047 27684.8
17.22 27681.6
17.2353 27661.5
17.2506 27634.1
17.266 27591.5
17.2813 27547.7
17.2966 27537.6
17.3119 27521.1
17.3272 27481.7
17.3425 27471.3
17.3579 27461.8
17.3732 27422.8
17.3885 27409.3
17.4038 27435.9
17.4191 27450.8
17.4344 27444.6
17.4498 27435
17.4651 27447.7
17.4804 27458.8
17.4957 27456
17.511 27419.8
17.5263 27406.6
17.5417 27404
17.557 27404
17.5723 27402.6
17.5876 27382.7
17.6029 27382.3
17.6182 27377.5
17.6336 27382.6
17.6489 27396.5
17.6642 27418.4
17.6795 27434.8
17.6948 27445.7
17.7101 27431.4
17.7255 27430
17.7408 27419.5
17.7561 27411.4
17.7714 27411.7
17.7867 27400.3
17.802 27396
17.8173 27376.9
17.8327 27334.1
17.848 27275
17.8633 27251.6
17.8786 27260.7
17.8939 27244.2
17.9092 27253
17.9246 27261.6
17.9399 27247.4
17.9552 27245.3
17.9705 27257.7
17.9858 27243.7
18.0011 27241.6
18.0165 27240.4
18.0318 27233.6
18.0471 27227
18.0624 27202.1
18.0777 27183.1
18.093 27184.4
18.1084 27178.8
18.1237 27163
18.139 27148.4
18.1543 27143.5
18.1696 27157.3
18.1849 27128.2
18.2003 27111
18.2156 27111.9
18.2309 27102.1
18.2462 27085.2
18.2615 27080.2
18.2768 27096.9
18.2922 27113.6
18.3075 27114.2
18.3228 27139.6
18.3381 27159.2
18.3534 27169
18.3687 27219.5
18.3841 27258.7
18.3994 27287.8
18.4147 27314.7
18.43 27307.8
18.4453 27272.6
18.4606 27244
18.476 27235.1
18.4913 27192.2
18.5066 27184.4
18.5219 27140.3
18.5372 27064.4
18.5525 27017.2
18.5679 26953
18.5832 26933.9
18.5985 26946
18.6138 26949.3
18.6291 26941.2
18.6444 26901.2
18.6597 26862.3
18.6751 26802.8
18.6904 26818.2
18.7057 26825.7
18.721 26805.7
18.7363 26773.5
18.7516 26772.1
18.767 26786.7
18.7823 26743.4
18.7976 26684.8
18.8129 26670.6
18.8282 26666.8
18.8435 26633
18.8589 26608.2
18.8742 26610.4
18.8895 26592
18.9048 26558.7
18.9201 26534.2
18.9354 26518.8
18.9508 26484.1
18.9661 26424.5
18.9814 26383.6
18.9967 26368.1
19.012 26348
19.0273 26348.6
19.0427 26378
19.058 26365.2
19.0733 26327.2
19.0886 26311.7
19.1039 26318.9
19.1192 26316.6
19.1346 26288.7
19.1499 26244.3
19.1652 26245
19.1805 26235.7
19.1958 26256.7
19.2111 26267.5
19.2265 26252.7
19.2418 26242
19.2571 26219.8
19.2724 26187.2
19.2877 26152.7
19.303 26102.8
19.3184 26079.3
19.3337 26064.1
19.349 26052.1
19.3643 26031.7
19.3796 25987.1
19.3949 25964.7
19.4102 25960.3
19.4256 25974.7
19.4409 25964.2
19.4562 25930.9
19.4715 25926.8
19.4868 25908.7
19.5021 25877.9
19.5175 25897.1
19.5328 25888.5
19.5481 25831.9
19.5634 25789.1
19.5787 25773.3
19.594 25747.3
19.6094 25749.9
19.6247 25750.2
19.64 25754.2
19.6553 25778.1
19.6706 25751.5
19.6859 25712.8
19.7013 25705.4
19.7166 25697.7
19.7319 25683.2
19.7472 25648.7
19.7625 25626.7
19.7778 25647.8
19.7932 25693.8
19.8085 25676.4
19.8238 25670.3
19.8391 25668.6
19.8544 25626.3
19.8697 25594.8
19.8851 25602.9
19.9004 25631.2
19.9157 25589.3
19.931 25530.5
19.9463 25538.3
19.9616 25624
19.977 25623.7
19.9923 25535.1
20.0076 25561.3
20.0229 25575.8
20.0382 25537.8
20.0535 25483
20.0689 25446.6
20.0842 25445.5
20.0995 25458.5
20.1148 25461
20.1301 25464.6
20.1454 25439.5
20.1608 25425.9
20.1761 25421.4
20.1914 25414.6
20.2067 25428.5
20.222 25430.7
20.2373 25444.6
20.2526 25471.1
20.268 25445.9
20.2833 25428.7
20.2986 25433.9
20.3139 25420.2
20.3292 25424.9
20.3445 25392.6
20.3599 25333.1
20.3752 25299
20.3905 25337
20.4058 25374.6
20.4211 25352.7
20.4364 25352.3
20.4518 25370.2
20.4671 25341.2
20.4824 25355.7
20.4977 25365.2
20.513 25362.3
20.5283 25360.4
20.5437 25345.2
20.559 25350.9
20.5743 25306.4
20.5896 25303
20.6049 25330.9
20.6202 25307.6
20.6356 25278.8
20.6509 25309.5
20.6662 25326.6
20.6815 25312.9
20.6968 25282.8
20.7121 25242.2
20.7275 25225.3
20.7428 25213.7
20.7581 25188.2
20.7734 25156.1
20.7887 25179.2
20.804 25191
20.8194 25220
20.8347 25221.8
20.85 25204.2
20.8653 25176.9
20.8806 25169.5
20.8959 25176.5
20.9113 25152
20.9266 25183.3
20.9419 25143
20.9572 25113.8
20.9725 25116.8
20.9878 25105.1
21.0031 25103.5
21.0185 25135.3
21.0338 25128.8
21.0491 25121.2
21.0644 25135
21.0797 25117.3
21.095 25129.3
21.1104 25140.8
21.1257 25122.6
21.141 25112.9
21.1563 25109.9
21.1716 25131.9
21.1869 25170.1
21.2023 25164.3
21.2176 25115.1
21.2329 25098
21.2482 25108.2
21.2635 25100.1
21.2788 25088.8
21.2942 25111.4
21.3095 25050.4
21.3248 25034.4
21.3401 25058.7
21.3554 25071.6
21.3707 25023.7
21.3861 25067.1
21.4014 25049.7
21.4167 25051.2
21.432 25065.5
21.4473 25067.6
21.4626 25045.3
21.478 25039.7
21.4933 25102.4
21.5086 25128.9
21.5239 25131.4
21.5392 25108.7
21.5545 25061.9
21.5699 25038.2
21.5852 25063.6
21.6005 25050.4
21.6158 25009.5
21.6311 24992.5
21.6464 25006.5
21.6618 25023.7
21.6771 25078.6
21.6924 25113.5
21.7077 25100
21.723 25067.2
21.7383 25060.2
21.7537 25083.6
21.769 25106.6
21.7843 25112.7
21.7996 25102.9
21.8149 25108.6
21.8302 25097.1
21.8455 25070.5
21.8609 25036.7
21.8762 25024.4
21.8915 25073.2
21.9068 25072.9
21.9221 25101
21.9374 25152.5
21.9528 25156
21.9681 25101.2
21.9834 25106.2
21.9987 25130.5
22.014 25090
22.0293 25146.9
22.0447 25192.2
22.06 25180
22.0753 25171
22.0906 25183.5
22.1059 25220.9
22.1212 25254
22.1366 25200.1
22.1519 25212.3
22.1672 25194.3
22.1825 25195
22.1978 25238.1
22.2131 25236.7
22.2285 25243.4
22.2438 25228.6
22.2591 25203.2
22.2744 25210.3
22.2897 25196.3
22.305 25242.7
22.3204 25299.8
22.3357 25315
22.351 25290.4
22.3663 25305.2
22.3816 25340.9
22.3969 25384.7
22.4123 25343.3
22.4276 25354.6
22.4429 25297.3
22.4582 25277.9
22.4735 25294.4
22.4888 25319.7
22.5042 25325.6
22.5195 25331.4
22.5348 25324
22.5501 25355
22.5654 25373.7
22.5807 25334.4
22.596 25317.1
22.6114 25393.9
22.6267 25365
22.642 25356.3
22.6573 25386.4
22.6726 25359.5
22.6879 25373.1
22.7033 25407.3
22.7186 25366
22.7339 25336.7
22.7492 25335.6
22.7645 25369.6
22.7798 25386.8
22.7952 25394.1
22.8105 25381.6
22.8258 25391.4
22.8411 25356.6
22.8564 25410.3
22.8717 25433.4
22.8871 25403.6
22.9024 25419.8
22.9177 25383.5
22.933 25376.3
22.9483 25449.4
22.9636 25517.5
22.979 25514.1
22.9943 25518
