# xPDFsuite Configuration #
[PDF]
wavelength = 0.1
dataformat = QA
inputfile = B3_Bronze-3nm_ss_26.chi
backgroundfile = B3_Li-bkg_ss.chi
mode = xray
bgscale = 0.98705
composition = Ti O2
outputtype = iq
qmaxinst = 23.0
qmin = 0.1
qmax = 23.0
rmax = 30.0
rmin = 0.0
rstep = 0.01
rpoly = 0.9

[Misc]
inputdir = E:/Beamtime/PETRA-III_September-2019/BeamData/processed/Run1/B3/chi/chi_w_sigmas/chi_scaled
savedir = E:/Beamtime/PETRA-III_September-2019/BeamData/processed/Run1/B3
backgroundfilefull = E:/Beamtime/PETRA-III_September-2019/BeamData/processed/Run1/B3/chi/chi_w_sigmas/chi_scaled/B3_Li-bkg_ss.chi

#### start data
#S 1
#L Q($\AA^{-1}$)  intensity(a.u.)
0.111649 0
0.126965 0
0.142282 0
0.157598 0
0.172914 0
0.188231 0
0.203547 0
0.218864 0
0.23418 0
0.249496 0
0.264813 0
0.280129 0
0.295445 0
0.310762 0
0.326078 0
0.341394 0
0.356711 0
0.372027 0
0.387343 0
0.40266 0
0.417976 0
0.433292 0
0.448609 0
0.463925 0
0.479241 0
0.494558 0
0.509874 0
0.525191 0
0.540507 0
0.555823 0
0.57114 0
0.586456 0
0.601772 0
0.617089 0
0.632405 0
0.647721 0
0.663038 0
0.678354 0
0.69367 0
0.708987 0
0.724303 0
0.739619 0
0.754936 0
0.770252 0
0.785568 0
0.800885 0
0.816201 0
0.831518 0
0.846834 0
0.86215 1.541
0.877467 110638
0.892783 111417
0.908099 112187
0.923416 113591
0.938732 115738
0.954048 117756
0.969365 118881
0.984681 118733
0.999997 116849
1.01531 113616
1.03063 108126
1.04595 101382
1.06126 93289.1
1.07658 83914.9
1.0919 74749
1.10721 64594.3
1.12253 55469.9
1.13784 46379.3
1.15316 38230.6
1.16848 31160
1.18379 24529.2
1.19911 19276.3
1.21443 14581.9
1.22974 10882.2
1.24506 8022.5
1.26038 5712.93
1.27569 4187.13
1.29101 3223.86
1.30632 2911.16
1.32164 3184.01
1.33696 3932.43
1.35227 5076.41
1.36759 6668.25
1.38291 8415.07
1.39822 10493.9
1.41354 12409.5
1.42886 14287.7
1.44417 16083.7
1.45949 17846.8
1.4748 19834.7
1.49012 22186.5
1.50544 25090.6
1.52075 28799.9
1.53607 33540.1
1.55139 39717.7
1.5667 46771.9
1.58202 55617.1
1.59733 64960
1.61265 75060.3
1.62797 85440.9
1.64328 95151.4
1.6586 104414
1.67392 111925
1.68923 117969
1.70455 122168
1.71987 124690
1.73518 125787
1.7505 125925
1.76581 126085
1.78113 125993
1.79645 126191
1.81176 126178
1.82708 126030
1.8424 125395
1.85771 124503
1.87303 122913
1.88835 120761
1.90366 118054
1.91898 115052
1.93429 111884
1.94961 108800
1.96493 106047
1.98024 103637
1.99556 101271
2.01088 99012.8
2.02619 96195.5
2.04151 93067.2
2.05683 89215.1
2.07214 85109.3
2.08746 80923.5
2.10277 76722
2.11809 73033.5
2.13341 69562.6
2.14872 66711.3
2.16404 64278
2.17936 62280.2
2.19467 60659.5
2.20999 59272.2
2.22531 58173.1
2.24062 57105.7
2.25594 56169.5
2.27125 55213.9
2.28657 54286.4
2.30189 53441.5
2.3172 52648
2.33252 51994.5
2.34784 51382.5
2.36315 50931
2.37847 50670.7
2.39379 50388.1
2.4091 50408.8
2.42442 50325.8
2.43973 50564.1
2.45505 50810.7
2.47037 51130.1
2.48568 51529.4
2.501 51930.8
2.51632 52352
2.53163 52569
2.54695 52917.4
2.56226 53439.1
2.57758 54047.5
2.5929 54501.7
2.60821 54868.7
2.62353 55071
2.63885 55245.5
2.65416 55385.9
2.66948 55569.9
2.6848 55918.1
2.70011 56447.6
2.71543 57426.2
2.73074 58663.3
2.74606 60464.2
2.76138 62894
2.77669 66026.7
2.79201 70102.4
2.80733 74960.1
2.82264 81159.1
2.83796 88642.1
2.85328 97388
2.86859 107934
2.88391 119344
2.89922 132366
2.91454 145621
2.92986 158900
2.94517 171491
2.96049 182537
2.97581 192022
2.99112 198916
3.00644 203465
3.02176 205220
3.03707 204563
3.05239 201729
3.0677 197219
3.08302 191307
3.09834 184522
3.11365 177248
3.12897 169712
3.14429 162084
3.1596 154241
3.17492 146706
3.19024 138916
3.20555 131654
3.22087 124599
3.23618 117782
3.2515 111432
3.26682 105309
3.28213 99779.5
3.29745 94465.4
3.31277 89792.2
3.32808 85516.5
3.3434 81654.7
3.35872 78398.9
3.37403 75481.9
3.38935 73255.1
3.40466 71439.8
3.41998 70101
3.4353 69159.6
3.45061 68538.2
3.46593 68300.5
3.48125 68204.1
3.49656 68207.1
3.51188 68212.9
3.52719 68246.6
3.54251 68273.2
3.55783 68148.7
3.57314 67947.4
3.58846 67599.3
3.60378 67227
3.61909 66862.8
3.63441 66532.4
3.64973 66402.8
3.66504 66386.1
3.68036 66677.7
3.69567 67254.8
3.71099 68108.1
3.72631 69242.3
3.74162 70512
3.75694 71979.9
3.77226 73345.2
3.78757 74515.1
3.80289 75431.5
3.81821 75995.5
3.83352 76183.5
3.84884 75997.4
3.86415 75489.3
3.87947 74676.9
3.89479 73718.7
3.9101 72644.9
3.92542 71521.3
3.94074 70536.9
3.95605 69711.3
3.97137 69181.8
3.98669 68817.6
4.002 68780.4
4.01732 68937.1
4.03263 69365.1
4.04795 70011.3
4.06327 71018
4.07858 72276.1
4.0939 73926.1
4.10922 75904.2
4.12453 78245
4.13985 80933.8
4.15517 83750.4
4.17048 86731.6
4.1858 89596.4
4.20111 92423.4
4.21643 95075.5
4.23175 97446.7
4.24706 99543.1
4.26238 101162
4.2777 102494
4.29301 103332
4.30833 103705
4.32365 103598
4.33896 102942
4.35428 101714
4.36959 99831.6
4.38491 97366
4.40023 94393.3
4.41554 90906.7
4.43086 87058.4
4.44618 83052.3
4.46149 78875.6
4.47681 74937.6
4.49213 71203.5
4.50744 67902.6
4.52276 65048.9
4.53807 62574.8
4.55339 60554.7
4.56871 58867.1
4.58402 57581.8
4.59934 56562.6
4.61466 55831.7
4.62997 55351.2
4.64529 55094.1
4.6606 55039.7
4.67592 55185.2
4.69124 55476.2
4.70655 55945.1
4.72187 56474.8
4.73719 57092.8
4.7525 57741.7
4.76782 58384.4
4.78314 59039.3
4.79845 59624.7
4.81377 60210.5
4.82908 60756.4
4.8444 61338.4
4.85972 61947.9
4.87503 62615.2
4.89035 63323
4.90567 64115
4.92098 65057.6
4.9363 66190.1
4.95162 67534.2
4.96693 69100
4.98225 70968.1
4.99756 73329.5
5.01288 75916.3
5.0282 78574.2
5.04351 81254.8
5.05883 83518.6
5.07415 85297.7
5.08946 86507.2
5.10478 86975.7
5.1201 87074.9
5.13541 86540.3
5.15073 85803.6
5.16604 84780.9
5.18136 83777.2
5.19668 82899
5.21199 82243.5
5.22731 81708.1
5.24263 81261.7
5.25794 80677.9
5.27326 79970.8
5.28858 79118.7
5.30389 78206.4
5.31921 77327.7
5.33452 76537.9
5.34984 75880.3
5.36516 75223.8
5.38047 74463.6
5.39579 73440.8
5.41111 72112.5
5.42642 70335.3
5.44174 68249.5
5.45706 65788.4
5.47237 63144.7
5.48769 60373.6
5.503 57722
5.51832 55408
5.53364 53441.3
5.54895 51981.2
5.56427 50959.4
5.57959 50258
5.5949 49888.1
5.61022 49621.4
5.62553 49509.8
5.64085 49337
5.65617 49138.7
5.67148 48919.7
5.6868 48743.2
5.70212 48551.6
5.71743 48390.2
5.73275 48291
5.74807 48211.4
5.76338 48249.9
5.7787 48416.1
5.79401 48733.7
5.80933 49230.4
5.82465 49838
5.83996 50611.7
5.85528 51429.3
5.8706 52305.7
5.88591 53152.9
5.90123 53971.1
5.91655 54700.5
5.93186 55316
5.94718 55729.7
5.96249 55948.2
5.97781 55998.1
5.99313 55826.8
6.00844 55458.4
6.02376 54867.4
6.03908 54178.6
6.05439 53431.2
6.06971 52717.4
6.08503 52025
6.10034 51353.2
6.11566 50834.4
6.13097 50390.1
6.14629 50025.8
6.16161 49712.3
6.17692 49538.5
6.19224 49485.8
6.20756 49557.4
6.22287 49766.3
6.23819 50098.7
6.25351 50494.7
6.26882 50919.7
6.28414 51244.6
6.29945 51474.7
6.31477 51554.4
6.33009 51531.5
6.3454 51372
6.36072 51101.8
6.37604 50781.2
6.39135 50421.5
6.40667 50110.6
6.42199 49878.2
6.4373 49768.8
6.45262 49784
6.46793 49933.3
6.48325 50230
6.49857 50635.1
6.51388 51099.9
6.5292 51580.9
6.54452 52118.2
6.55983 52669.2
6.57515 53269.2
6.59046 53881
6.60578 54537.3
6.6211 55203.5
6.63641 55883.5
6.65173 56495.9
6.66705 57004.9
6.68236 57443.1
6.69768 57777.6
6.713 58045.6
6.72831 58144.3
6.74363 58120.4
6.75894 57944.7
6.77426 57727.5
6.78958 57434.6
6.80489 57117.7
6.82021 56741.6
6.83553 56329.1
6.85084 55861.8
6.86616 55374.4
6.88148 54895.6
6.89679 54418.5
6.91211 53932.4
6.92742 53464
6.94274 53039.1
6.95806 52623.9
6.97337 52221.4
6.98869 51802.9
7.00401 51398.3
7.01932 51027.7
7.03464 50684
7.04996 50371.2
7.06527 50099
7.08059 49888.5
7.0959 49675.1
7.11122 49482.6
7.12654 49312.8
7.14185 49194
7.15717 49145
7.17249 49120
7.1878 49148.2
7.20312 49226.6
7.21844 49384.5
7.23375 49563.7
7.24907 49761.5
7.26438 49979.3
7.2797 50209.4
7.29502 50427.7
7.31033 50610.2
7.32565 50759.7
7.34097 50878
7.35628 50940.3
7.3716 50914.6
7.38692 50805.9
7.40223 50638.5
7.41755 50436.9
7.43286 50208.3
7.44818 49935.6
7.4635 49642.2
7.47881 49350.2
7.49413 49103.9
7.50945 48864.6
7.52476 48629.3
7.54008 48349.5
7.55539 48026.2
7.57071 47684
7.58603 47305.9
7.60134 46900.9
7.61666 46491.8
7.63198 46093.8
7.64729 45709.1
7.66261 45329
7.67793 45050.1
7.69324 44888.1
7.70856 44852.1
7.72387 44923.5
7.73919 45107.3
7.75451 45349.5
7.76982 45622.2
7.78514 45890.7
7.80046 46115.3
7.81577 46260
7.83109 46274.2
7.84641 46164.2
7.86172 45910.8
7.87704 45557.3
7.89235 45139.4
7.90767 44736
7.92299 44364.5
7.9383 44064.3
7.95362 43834.6
7.96894 43683.8
7.98425 43563.6
7.99957 43506.4
8.01489 43486
8.0302 43457.1
8.04552 43418.2
8.06083 43364.1
8.07615 43318.6
8.09147 43249.6
8.10678 43204.3
8.1221 43130.3
8.13742 43075.2
8.15273 43028.6
8.16805 43009.7
8.18337 42976.6
8.19868 42968.1
8.214 42943.2
8.22931 42916.3
8.24463 42902.8
8.25995 42818.9
8.27526 42691.6
8.29058 42512.5
8.3059 42350.6
8.32121 42154.6
8.33653 41965.3
8.35185 41802.2
8.36716 41663.1
8.38248 41572.9
8.39779 41512.7
8.41311 41497.8
8.42843 41509.9
8.44374 41588.9
8.45906 41669.4
8.47438 41794.1
8.48969 41936.4
8.50501 42112.5
8.52032 42263
8.53564 42440.3
8.55096 42618.3
8.56627 42807.6
8.58159 42979.5
8.59691 43136.5
8.61222 43314.1
8.62754 43478.3
8.64286 43660.8
8.65817 43818.2
8.67349 43974.4
8.6888 44094.7
8.70412 44206.3
8.71944 44380.2
8.73475 44632.4
8.75007 44958.6
8.76539 45350
8.7807 45778.6
8.79602 46163.4
8.81134 46459.3
8.82665 46640.7
8.84197 46726.2
8.85728 46689.8
8.8726 46573.9
8.88792 46414.8
8.90323 46278.4
8.91855 46255.7
8.93387 46363.9
8.94918 46621.6
8.9645 46920.5
8.97982 47197.1
8.99513 47399.9
9.01045 47500.3
9.02576 47436.6
9.04108 47194.5
9.0564 46778.1
9.07171 46244.8
9.08703 45649
9.10235 45035.1
9.11766 44454.4
9.13298 43948.7
9.1483 43530.5
9.16361 43182.4
9.17893 42909
9.19424 42660.1
9.20956 42426.3
9.22488 42171.5
9.24019 41942.8
9.25551 41680.4
9.27083 41435
9.28614 41172.4
9.30146 40926.2
9.31678 40676.8
9.33209 40438.6
9.34741 40229.4
9.36272 40063.2
9.37804 39893.7
9.39336 39758.5
9.40867 39631.3
9.42399 39564.5
9.43931 39563.6
9.45462 39611.7
9.46994 39706.3
9.48525 39837.8
9.50057 40024
9.51589 40226.8
9.5312 40413.6
9.54652 40584.2
9.56184 40702.5
9.57715 40735.9
9.59247 40682.7
9.60779 40577.9
9.6231 40409.4
9.63842 40221.8
9.65373 40012.7
9.66905 39856.1
9.68437 39721.1
9.69968 39641.6
9.715 39597.7
9.73032 39606.2
9.74563 39614.2
9.76095 39630.3
9.77627 39668.4
9.79158 39712
9.8069 39771.7
9.82221 39829.8
9.83753 39875.7
9.85285 39893.4
9.86816 39910.6
9.88348 39946.2
9.8988 39993.9
9.91411 40041.1
9.92943 40137.8
9.94475 40271.3
9.96006 40420
9.97538 40558.6
9.99069 40704.3
10.006 40827.7
10.0213 40982.7
10.0366 41119.3
10.052 41297.3
10.0673 41461.9
10.0826 41634
10.0979 41822.6
10.1132 42009.9
10.1285 42248.1
10.1439 42490.5
10.1592 42743.1
10.1745 42911
10.1898 43025.4
10.2051 43049
10.2204 43026.4
10.2358 42982.4
10.2511 42939.3
10.2664 42924.3
10.2817 42962.1
10.297 43052.4
10.3123 43238
10.3277 43376
10.343 43459.1
10.3583 43443.5
10.3736 43355.4
10.3889 43194.1
10.4042 42974.6
10.4196 42706.7
10.4349 42422.6
10.4502 42122.8
10.4655 41878.2
10.4808 41688.4
10.4961 41545.7
10.5115 41450.4
10.5268 41402.2
10.5421 41424.6
10.5574 41477.2
10.5727 41537.2
10.588 41571.1
10.6033 41581.7
10.6187 41569.4
10.634 41486.7
10.6493 41383.1
10.6646 41224.1
10.6799 41038.8
10.6952 40832.6
10.7106 40631.4
10.7259 40449.4
10.7412 40303.5
10.7565 40187.1
10.7718 40133.6
10.7871 40099.6
10.8025 40096.1
10.8178 40081.8
10.8331 40074.7
10.8484 40008.5
10.8637 39880.4
10.879 39720.4
10.8944 39530.6
10.9097 39316.7
10.925 39088.3
10.9403 38840.6
10.9556 38644.5
10.9709 38467.9
10.9863 38305.3
11.0016 38164.2
11.0169 38043
11.0322 37937.1
11.0475 37817.2
11.0628 37676.2
11.0782 37540.4
11.0935 37390.9
11.1088 37250.8
11.1241 37121.4
11.1394 37012.7
11.1547 36956.9
11.1701 36870.9
11.1854 36805.8
11.2007 36779.1
11.216 36712.9
11.2313 36656.6
11.2466 36579.1
11.262 36520.7
11.2773 36468.8
11.2926 36468.8
11.3079 36454.3
11.3232 36441.3
11.3385 36395.2
11.3538 36367.2
11.3692 36323
11.3845 36308.8
11.3998 36292.8
11.4151 36248
11.4304 36210.5
11.4457 36185.4
11.4611 36189.6
11.4764 36192.2
11.4917 36229.5
11.507 36273
11.5223 36318.5
11.5376 36326
11.553 36329
11.5683 36340.3
11.5836 36336.7
11.5989 36338.7
11.6142 36290.7
11.6295 36212.3
11.6449 36119.2
11.6602 35988
11.6755 35866.8
11.6908 35751
11.7061 35684.4
11.7214 35635.5
11.7368 35612.9
11.7521 35594.8
11.7674 35602.3
11.7827 35620.3
11.798 35631
11.8133 35613.2
11.8287 35551.9
11.844 35477
11.8593 35401
11.8746 35343.2
11.8899 35292.9
11.9052 35211.8
11.9206 35147.1
11.9359 35117.6
11.9512 35114.6
11.9665 35094.2
11.9818 35076.1
11.9971 35058
12.0125 35058.8
12.0278 35035.5
12.0431 35007.5
12.0584 34975.9
12.0737 34930.3
12.089 34883.2
12.1044 34839.3
12.1197 34796.6
12.135 34770.5
12.1503 34754.9
12.1656 34732
12.1809 34720.7
12.1962 34724.7
12.2116 34711.6
12.2269 34713.9
12.2422 34698.3
12.2575 34703.3
12.2728 34695.8
12.2881 34694.2
12.3035 34717.3
12.3188 34770.4
12.3341 34808.8
12.3494 34830.9
12.3647 34860.7
12.38 34889.1
12.3954 34918.6
12.4107 34920.2
12.426 34934.7
12.4413 34955.6
12.4566 34999.7
12.4719 35020.9
12.4873 35022.5
12.5026 35008.5
12.5179 34998.4
12.5332 34989.2
12.5485 35016.2
12.5638 35043.4
12.5792 35065.4
12.5945 35064.9
12.6098 35059.4
12.6251 35079.3
12.6404 35115.4
12.6557 35150.3
12.6711 35184.1
12.6864 35190
12.7017 35185.9
12.717 35181.7
12.7323 35177.2
12.7476 35142.1
12.763 35138.6
12.7783 35178.9
12.7936 35244.4
12.8089 35305.4
12.8242 35366.4
12.8395 35411.1
12.8549 35446.9
12.8702 35412
12.8855 35312.9
12.9008 35234.3
12.9161 35159.8
12.9314 35091.2
12.9467 35009.8
12.9621 34963.5
12.9774 34924.1
12.9927 34912.9
13.008 34911.1
13.0233 34902.1
13.0386 34901.6
13.054 34921.6
13.0693 34923.4
13.0846 34913.9
13.0999 34898.1
13.1152 34894.7
13.1305 34889
13.1459 34861.7
13.1612 34846.4
13.1765 34824.7
13.1918 34804
13.2071 34781.4
13.2224 34768.5
13.2378 34771.3
13.2531 34771.2
13.2684 34780.8
13.2837 34769.4
13.299 34780.7
13.3143 34792.3
13.3297 34819.5
13.345 34836.6
13.3603 34894.5
13.3756 34955.7
13.3909 35059.8
13.4062 35190.6
13.4216 35367.3
13.4369 35558
13.4522 35750.2
13.4675 35921.1
13.4828 36040.6
13.4981 36100.4
13.5135 36154.9
13.5288 36202.1
13.5441 36239.9
13.5594 36274.4
13.5747 36317.8
13.59 36319
13.6054 36298.2
13.6207 36216.1
13.636 36075.9
13.6513 35893.7
13.6666 35700.1
13.6819 35497.3
13.6973 35293
13.7126 35101.1
13.7279 34969.9
13.7432 34881.7
13.7585 34792.9
13.7738 34710.3
13.7891 34627.6
13.8045 34553.7
13.8198 34485.9
13.8351 34455.4
13.8504 34420.3
13.8657 34417.8
13.881 34422.5
13.8964 34430.2
13.9117 34478.1
13.927 34488.8
13.9423 34490.1
13.9576 34516.9
13.9729 34509.9
13.9883 34466.8
14.0036 34417.3
14.0189 34335.5
14.0342 34206.6
14.0495 34079.7
14.0648 33943.6
14.0802 33806.8
14.0955 33689
14.1108 33591.3
14.1261 33476.8
14.1414 33378.8
14.1567 33313.6
14.1721 33261.1
14.1874 33231.8
14.2027 33190.3
14.218 33141.9
14.2333 33129.3
14.2486 33106.9
14.264 33065.7
14.2793 33017.4
14.2946 32941.5
14.3099 32872.2
14.3252 32829
14.3405 32801
14.3559 32790.8
14.3712 32784.1
14.3865 32763.1
14.4018 32738
14.4171 32739.5
14.4324 32714.5
14.4478 32662.2
14.4631 32600.8
14.4784 32577
14.4937 32588.4
14.509 32620.3
14.5243 32658.4
14.5397 32659.1
14.555 32647.8
14.5703 32652.6
14.5856 32655
14.6009 32638.8
14.6162 32598.3
14.6315 32523.5
14.6469 32455.5
14.6622 32437.5
14.6775 32408.6
14.6928 32372.6
14.7081 32333.2
14.7234 32316.3
14.7388 32303.2
14.7541 32288.9
14.7694 32229.3
14.7847 32165.8
14.8 32128.4
14.8153 32095.6
14.8307 32046.1
14.846 32017.6
14.8613 31992.4
14.8766 31945.4
14.8919 31924.9
14.9072 31912.5
14.9226 31909.1
14.9379 31862.2
14.9532 31817.3
14.9685 31800.9
14.9838 31788.5
14.9991 31798.7
15.0145 31781.3
15.0298 31764.4
15.0451 31782.9
15.0604 31780.1
15.0757 31756.3
15.091 31744.7
15.1064 31763.6
15.1217 31787.5
15.137 31765.1
15.1523 31750.5
15.1676 31785.3
15.1829 31807.6
15.1983 31819
15.2136 31853.4
15.2289 31882.8
15.2442 31937.9
15.2595 31988.7
15.2748 32017.5
15.2902 32023.9
15.3055 32019.3
15.3208 32055.2
15.3361 32107.1
15.3514 32149.1
15.3667 32168
15.382 32172.1
15.3974 32158.2
15.4127 32156.7
15.428 32129.1
15.4433 32109.2
15.4586 32116.4
15.4739 32093.7
15.4893 32045.2
15.5046 32000.6
15.5199 31969.6
15.5352 31924.7
15.5505 31901.8
15.5658 31907
15.5812 31890
15.5965 31859.8
15.6118 31825.4
15.6271 31811.5
15.6424 31798.2
15.6577 31782.4
15.6731 31774.5
15.6884 31765.5
15.7037 31758.4
15.719 31738.6
15.7343 31718
15.7496 31704.4
15.765 31663.4
15.7803 31628.4
15.7956 31589
15.8109 31558.2
15.8262 31539.9
15.8415 31495.7
15.8569 31427.3
15.8722 31350
15.8875 31268.1
15.9028 31216.3
15.9181 31203.9
15.9334 31162
15.9488 31121.5
15.9641 31095.7
15.9794 31065.9
15.9947 31031.8
16.01 30977.8
16.0253 30949.7
16.0407 30942
16.056 30943.2
16.0713 30952.5
16.0866 30919.3
16.1019 30908.7
16.1172 30900.5
16.1326 30914
16.1479 30928.5
16.1632 30942.3
16.1785 30949.1
16.1938 30935.9
16.2091 30933.6
16.2244 30919.8
16.2398 30876.1
16.2551 30879.6
16.2704 30912.1
16.2857 30929.7
16.301 30913.2
16.3163 30896
16.3317 30891.7
16.347 30895.5
16.3623 30883
16.3776 30863.2
16.3929 30820.1
16.4082 30791.2
16.4236 30790.2
16.4389 30780.8
16.4542 30756.7
16.4695 30701.1
16.4848 30630.4
16.5001 30591.1
16.5155 30590.5
16.5308 30582
16.5461 30577.1
16.5614 30533.8
16.5767 30479.6
16.592 30436.1
16.6074 30359.2
16.6227 30332.4
16.638 30313.3
16.6533 30279.9
16.6686 30220.7
16.6839 30183.2
16.6993 30165.1
16.7146 30139.9
16.7299 30130.3
16.7452 30118.8
16.7605 30096.1
16.7758 30045.6
16.7912 30000.8
16.8065 29994.5
16.8218 29970.9
16.8371 29937.6
16.8524 29936.1
16.8677 29979.3
16.8831 29969
16.8984 29933.8
16.9137 29877.1
16.929 29841.4
16.9443 29853.2
16.9596 29860.6
16.9749 29862.6
16.9903 29823.3
17.0056 29777.1
17.0209 29739
17.0362 29735.1
17.0515 29726.2
17.0668 29686.2
17.0822 29665.8
17.0975 29647.1
17.1128 29592
17.1281 29548.3
17.1434 29540.2
17.1587 29547
17.1741 29554
17.1894 29525.7
17.2047 29499.9
17.22 29476.9
17.2353 29440.6
17.2506 29424.6
17.266 29396.2
17.2813 29348.2
17.2966 29360.1
17.3119 29356.2
17.3272 29327.5
17.3425 29334.9
17.3579 29319.2
17.3732 29275
17.3885 29288.8
17.4038 29313.2
17.4191 29298.5
17.4344 29259.3
17.4498 29261.9
17.4651 29297.5
17.4804 29317.7
17.4957 29311.4
17.511 29284.1
17.5263 29289
17.5417 29275.5
17.557 29257.2
17.5723 29270.9
17.5876 29257.5
17.6029 29282.1
17.6182 29290.8
17.6336 29296.6
17.6489 29318.4
17.6642 29350.2
17.6795 29335.6
17.6948 29338.4
17.7101 29322.2
17.7255 29317.6
17.7408 29327.7
17.7561 29274.9
17.7714 29247.4
17.7867 29241.6
17.802 29247.3
17.8173 29213.7
17.8327 29195.6
17.848 29190.8
17.8633 29192.1
17.8786 29176.2
17.8939 29175.6
17.9092 29189.4
17.9246 29193.4
17.9399 29196.6
17.9552 29185.6
17.9705 29166
17.9858 29135.2
18.0011 29128.8
18.0165 29118.8
18.0318 29088.8
18.0471 29081.6
18.0624 29078.9
18.0777 29050.8
18.093 29048.9
18.1084 29072.8
18.1237 29069.7
18.139 29025.8
18.1543 28997.9
18.1696 28999.3
18.1849 28979.2
18.2003 28961
18.2156 28973.8
18.2309 28958.5
18.2462 28947.4
18.2615 28985.4
18.2768 29026.3
18.2922 29019.9
18.3075 29024.1
18.3228 29044.5
18.3381 29056.6
18.3534 29078.4
18.3687 29110.9
18.3841 29131.5
18.3994 29147.8
18.4147 29154.4
18.43 29158.8
18.4453 29116.8
18.4606 29091.8
18.476 29087.5
18.4913 29031.6
18.5066 28969.2
18.5219 28979.9
18.5372 28961.4
18.5525 28917.9
18.5679 28886.2
18.5832 28852.8
18.5985 28868.5
18.6138 28869.6
18.6291 28842.2
18.6444 28818.5
18.6597 28792.5
18.6751 28756.4
18.6904 28753.3
18.7057 28750.4
18.721 28733.1
18.7363 28702.6
18.7516 28685.6
18.767 28681.2
18.7823 28656.4
18.7976 28598
18.8129 28557.6
18.8282 28557.7
18.8435 28536.2
18.8589 28521
18.8742 28524.3
18.8895 28484.6
18.9048 28453.1
18.9201 28406.3
18.9354 28367.2
18.9508 28368.2
18.9661 28354.7
18.9814 28321.5
18.9967 28274.1
19.012 28228.9
19.0273 28230.7
19.0427 28271.1
19.058 28249.2
19.0733 28201.9
19.0886 28181.1
19.1039 28186.2
19.1192 28162.3
19.1346 28151.3
19.1499 28143.5
19.1652 28122.5
19.1805 28079
19.1958 28064.9
19.2111 28070.9
19.2265 28092.8
19.2418 28089.7
19.2571 28069.8
19.2724 28071.7
19.2877 28070.4
19.303 28032.4
19.3184 27974.4
19.3337 27929.3
19.349 27918.6
19.3643 27874.8
19.3796 27857.3
19.3949 27861.5
19.4102 27876.7
19.4256 27859.3
19.4409 27792.7
19.4562 27736.5
19.4715 27712.8
19.4868 27732.9
19.5021 27721.7
19.5175 27716.7
19.5328 27714.3
19.5481 27690.6
19.5634 27656
19.5787 27646.9
19.594 27608
19.6094 27589.2
19.6247 27598.8
19.64 27571.4
19.6553 27572.4
19.6706 27567
19.6859 27561.1
19.7013 27562.7
19.7166 27549.3
19.7319 27528.9
19.7472 27482
19.7625 27451.2
19.7778 27469.2
19.7932 27492.1
19.8085 27505.1
19.8238 27502.3
19.8391 27465.5
19.8544 27431.4
19.8697 27418.3
19.8851 27428.4
19.9004 27418.1
19.9157 27362.7
19.931 27358.5
19.9463 27408.7
19.9616 27317.2
19.977 27230.9
19.9923 27347.7
20.0076 27371.3
20.0229 27365.5
20.0382 27362.2
20.0535 27325.6
20.0689 27272
20.0842 27287
20.0995 27261.7
20.1148 27249.2
20.1301 27229.9
20.1454 27231.6
20.1608 27266.9
20.1761 27277.4
20.1914 27230.8
20.2067 27186.3
20.222 27188.6
20.2373 27237.6
20.2526 27241.4
20.268 27220
20.2833 27238.7
20.2986 27236.3
20.3139 27182.8
20.3292 27179.4
20.3445 27189
20.3599 27175.9
20.3752 27128
20.3905 27127.4
20.4058 27163.8
20.4211 27193.7
20.4364 27170.7
20.4518 27164
20.4671 27139.7
20.4824 27163.9
20.4977 27174.8
20.513 27150.5
20.5283 27148.6
20.5437 27133.1
20.559 27144.6
20.5743 27122.4
20.5896 27137.6
20.6049 27165.6
20.6202 27144.6
20.6356 27093.3
20.6509 27087.1
20.6662 27124.2
20.6815 27120.4
20.6968 27126.3
20.7121 27095.3
20.7275 27056.8
20.7428 27056.9
20.7581 27018.1
20.7734 27010.5
20.7887 26997.9
20.804 26970.6
20.8194 26995.5
20.8347 27040.6
20.85 27054.8
20.8653 26978
20.8806 26948.3
20.8959 26999.2
20.9113 27018.6
20.9266 27016.3
20.9419 27005.4
20.9572 26976.7
20.9725 26965.3
20.9878 26962.1
21.0031 26998.8
21.0185 27045.9
21.0338 27000
21.0491 26954.8
21.0644 26956.1
21.0797 26962
21.095 26972.5
21.1104 26972.3
21.1257 26976.4
21.141 26958.7
21.1563 26927.9
21.1716 26936.7
21.1869 26960.5
21.2023 26970.1
21.2176 26932.9
21.2329 26935.2
21.2482 26943.8
21.2635 26927.9
21.2788 26933.5
21.2942 26937.2
21.3095 26893.6
21.3248 26961.7
21.3401 26961.2
21.3554 26938.2
21.3707 26919.7
21.3861 26949.8
21.4014 26911.8
21.4167 26907.1
21.432 26923.5
21.4473 26934.1
21.4626 26901.6
21.478 26874.5
21.4933 26910.6
21.5086 26897.7
21.5239 26889.4
21.5392 26947
21.5545 26933.7
21.5699 26897.9
21.5852 26865.6
21.6005 26858.5
21.6158 26889.9
21.6311 26884.6
21.6464 26870.7
21.6618 26870.3
21.6771 26834.5
21.6924 26849.7
21.7077 26872.4
21.723 26858.1
21.7383 26871.8
21.7537 26878.8
21.769 26903.3
21.7843 26948.1
21.7996 26929.5
21.8149 26950.5
21.8302 26952
21.8455 26919.4
21.8609 26867.9
21.8762 26862.1
21.8915 26879.3
21.9068 26901.1
21.9221 26893.9
21.9374 26907.3
21.9528 26900.5
21.9681 26905.2
21.9834 26933.8
21.9987 26963.3
22.014 26935.1
22.0293 26959.5
22.0447 27013.7
22.06 27063.2
22.0753 27054.8
22.0906 27062.4
22.1059 27056.3
22.1212 27064.4
22.1366 27091.5
22.1519 27094.4
22.1672 27066.5
22.1825 27082.1
22.1978 27116.6
22.2131 27096.9
22.2285 27105.1
22.2438 27104.3
22.2591 27079.6
22.2744 27062
22.2897 27053.7
22.305 27072.7
22.3204 27116.3
22.3357 27116.5
22.351 27111.5
22.3663 27111.9
22.3816 27169.5
22.3969 27197.8
22.4123 27144.2
22.4276 27155.9
22.4429 27144.2
22.4582 27131.5
22.4735 27174.9
22.4888 27196.3
22.5042 27126.2
22.5195 27149.1
22.5348 27138.5
22.5501 27167.8
22.5654 27205.8
22.5807 27209.7
22.596 27184
22.6114 27223.8
22.6267 27188.7
22.642 27196.7
22.6573 27222.2
22.6726 27230
22.6879 27254.4
22.7033 27227.3
22.7186 27213.7
22.7339 27208.7
22.7492 27178.5
22.7645 27172.3
22.7798 27210.1
22.7952 27219.6
22.8105 27225
22.8258 27229.5
22.8411 27197.1
22.8564 27229.8
22.8717 27247.1
22.8871 27218.4
22.9024 27318.8
22.9177 27318.4
22.933 27303.8
22.9483 27287.6
22.9636 27289
22.979 27255.9
22.9943 27349.6
