# xPDFsuite Configuration #
[PDF]
wavelength = 0.1
dataformat = QA
inputfile = B3_Bronze-3nm_ss_06.chi
backgroundfile = B3_Li-bkg_ss.chi
mode = xray
bgscale = 0.98705
composition = Ti O2
outputtype = iq
qmaxinst = 23.0
qmin = 0.1
qmax = 23.0
rmax = 30.0
rmin = 0.0
rstep = 0.01
rpoly = 0.9

[Misc]
inputdir = E:/Beamtime/PETRA-III_September-2019/BeamData/processed/Run1/B3/chi/chi_w_sigmas/chi_scaled
savedir = E:/Beamtime/PETRA-III_September-2019/BeamData/processed/Run1/B3
backgroundfilefull = E:/Beamtime/PETRA-III_September-2019/BeamData/processed/Run1/B3/chi/chi_w_sigmas/chi_scaled/B3_Li-bkg_ss.chi

#### start data
#S 1
#L Q($\AA^{-1}$)  intensity(a.u.)
0.111649 0
0.126965 0
0.142282 0
0.157598 0
0.172914 0
0.188231 0
0.203547 0
0.218864 0
0.23418 0
0.249496 0
0.264813 0
0.280129 0
0.295445 0
0.310762 0
0.326078 0
0.341394 0
0.356711 0
0.372027 0
0.387343 0
0.40266 0
0.417976 0
0.433292 0
0.448609 0
0.463925 0
0.479241 0
0.494558 0
0.509874 0
0.525191 0
0.540507 0
0.555823 0
0.57114 0
0.586456 0
0.601772 0
0.617089 0
0.632405 0
0.647721 0
0.663038 0
0.678354 0
0.69367 0
0.708987 0
0.724303 0
0.739619 0
0.754936 0
0.770252 0
0.785568 0
0.800885 0
0.816201 0
0.831518 0
0.846834 0
0.86215 1.27627
0.877467 91631.7
0.892783 91503.7
0.908099 91568.2
0.923416 92456.9
0.938732 93931.4
0.954048 95837.1
0.969365 97544.7
0.984681 98565.1
0.999997 98699.1
1.01531 97900.7
1.03063 95603
1.04595 92226.8
1.06126 87654.5
1.07658 81840.3
1.0919 75823.7
1.10721 68692.8
1.12253 61929.4
1.13784 54751.5
1.15316 48054.8
1.16848 41898.7
1.18379 36012.3
1.19911 31057.5
1.21443 26379.1
1.22974 22439.2
1.24506 19116.6
1.26038 16279.5
1.27569 14138.7
1.29101 12375.4
1.30632 11079.3
1.32164 10274.2
1.33696 9908.96
1.35227 10098.6
1.36759 10723.6
1.38291 11674
1.39822 12971.4
1.41354 14254.4
1.42886 15477.6
1.44417 16606.4
1.45949 17632.1
1.4748 18735
1.49012 19943.5
1.50544 21724.2
1.52075 24089.4
1.53607 27505.9
1.55139 32225.1
1.5667 38032.4
1.58202 45971.2
1.59733 55108.4
1.61265 66302.6
1.62797 79088.5
1.64328 92558.7
1.6586 107556
1.67392 121993
1.68923 136418
1.70455 149593
1.71987 160996
1.73518 170831
1.7505 178353
1.76581 184398
1.78113 188021
1.79645 189505
1.81176 188890
1.82708 186416
1.8424 181974
1.85771 176712
1.87303 170297
1.88835 163855
1.90366 157669
1.91898 152043
1.93429 147442
1.94961 143959
1.96493 141875
1.98024 140780
1.99556 140315
2.01088 139967
2.02619 139102
2.04151 137428
2.05683 134449
2.07214 130551
2.08746 125767
2.10277 120137
2.11809 114249
2.13341 107911
2.14872 101849
2.16404 96047.6
2.17936 90720.8
2.19467 86213.2
2.20999 82282.4
2.22531 79308.8
2.24062 76904.3
2.25594 75043.1
2.27125 73512.5
2.28657 72104
2.30189 70856.9
2.3172 69390.2
2.33252 67865.9
2.34784 66025
2.36315 64150.8
2.37847 62295.3
2.39379 60274.5
2.4091 58655.1
2.42442 56988
2.43973 55921.9
2.45505 55110.4
2.47037 54638.3
2.48568 54510
2.501 54608.9
2.51632 54930.4
2.53163 55364.3
2.54695 55922.1
2.56226 56481.2
2.57758 57053.6
2.5929 57495.1
2.60821 57916.8
2.62353 58070.8
2.63885 57986.8
2.65416 57678
2.66948 57205.7
2.6848 56571.5
2.70011 55899
2.71543 55386.7
2.73074 54991.5
2.74606 54835.1
2.76138 54950.4
2.77669 55422.9
2.79201 56344.3
2.80733 57644.2
2.82264 59678.9
2.83796 62391.4
2.85328 65965.1
2.86859 70662.5
2.88391 76151.4
2.89922 82979
2.91454 90504.7
2.92986 98877.6
2.94517 107712
2.96049 116558
2.97581 125449
2.99112 133314
3.00644 140175
3.02176 145267
3.03707 148494
3.05239 149752
3.0677 149041
3.08302 146428
3.09834 142435
3.11365 137540
3.12897 132214
3.14429 126914
3.1596 122083
3.17492 118236
3.19024 115339
3.20555 113583
3.22087 112687
3.23618 112357
3.2515 112247
3.26682 111952
3.28213 111287
3.29745 109885
3.31277 107861
3.32808 105072
3.3434 101660
3.35872 97996.4
3.37403 93929.4
3.38935 90115.9
3.40466 86455.3
3.41998 83187.6
3.4353 80340.1
3.45061 77882.8
3.46593 76002.3
3.48125 74444.7
3.49656 73325.7
3.51188 72525.7
3.52719 72192.2
3.54251 72319.3
3.55783 72823.4
3.57314 73608.1
3.58846 74720
3.60378 76036
3.61909 77444.3
3.63441 78873.3
3.64973 80223.1
3.66504 81313.9
3.68036 82170.3
3.69567 82664.5
3.71099 82834.2
3.72631 82800.8
3.74162 82623.4
3.75694 82556.1
3.77226 82502.6
3.78757 82684.2
3.80289 83202.2
3.81821 84050.7
3.83352 85206.6
3.84884 86703.8
3.86415 88327.8
3.87947 89960.7
3.89479 91360.1
3.9101 92405.2
3.92542 92976.4
3.94074 93053.3
3.95605 92544
3.97137 91615.8
3.98669 90158
4.002 88586.8
4.01732 86903.5
4.03263 85358.8
4.04795 84046.6
4.06327 83099.8
4.07858 82588.5
4.0939 82529.4
4.10922 82815.4
4.12453 83335.1
4.13985 83966.2
4.15517 84515.4
4.17048 84771.6
4.1858 84709.7
4.20111 84292.1
4.21643 83602.1
4.23175 82571.8
4.24706 81259.3
4.26238 79793.5
4.2777 78285.5
4.29301 76869.4
4.30833 75539
4.32365 74432.3
4.33896 73659.8
4.35428 73194.6
4.36959 72975.3
4.38491 73097
4.40023 73400.1
4.41554 73906.1
4.43086 74386.8
4.44618 74812.5
4.46149 75084.4
4.47681 75147.2
4.49213 74934.3
4.50744 74410.7
4.52276 73597.9
4.53807 72447.7
4.55339 71098.8
4.56871 69471.2
4.58402 67707.8
4.59934 65778.5
4.61466 63893.7
4.62997 62103.2
4.64529 60404.3
4.6606 58906
4.67592 57544.7
4.69124 56376.8
4.70655 55377.4
4.72187 54604.4
4.73719 54076.6
4.7525 53835.6
4.76782 53893
4.78314 54274.6
4.79845 54907.8
4.81377 55845.5
4.82908 57011.9
4.8444 58422.3
4.85972 60025
4.87503 61765.4
4.89035 63580.7
4.90567 65401.4
4.92098 67235.9
4.9363 69056.7
4.95162 70867.2
4.96693 72643.6
4.98225 74508.6
4.99756 76671.8
5.01288 78935.8
5.0282 81185.7
5.04351 83370
5.05883 85050.8
5.07415 86251.3
5.08946 86834.4
5.10478 86644.4
5.1201 85997.9
5.13541 84642
5.15073 83050.6
5.16604 81153
5.18136 79255.1
5.19668 77522.9
5.21199 76081
5.22731 74948.7
5.24263 74135.5
5.25794 73494.8
5.27326 73084.9
5.28858 72884.7
5.30389 72913.4
5.31921 73294.2
5.33452 73943.5
5.34984 74905.3
5.36516 75847.2
5.38047 76631.5
5.39579 76939.4
5.41111 76679.1
5.42642 75763.8
5.44174 74242.4
5.45706 72024.7
5.47237 69345.2
5.48769 66329.3
5.503 63222.3
5.51832 60336.5
5.53364 57640.4
5.54895 55429.3
5.56427 53598.6
5.57959 52146.7
5.5949 51015.2
5.61022 50066
5.62553 49309.3
5.64085 48567.4
5.65617 47970.4
5.67148 47441.7
5.6868 47060.6
5.70212 46721.8
5.71743 46460.3
5.73275 46351.8
5.74807 46386.7
5.76338 46561.3
5.7787 46910.8
5.79401 47464
5.80933 48233.5
5.82465 49093.3
5.83996 50054.7
5.85528 51015
5.8706 51995.8
5.88591 52927.7
5.90123 53796.6
5.91655 54567
5.93186 55250.3
5.94718 55757.9
5.96249 56078.7
5.97781 56256.2
5.99313 56256.4
6.00844 56133
6.02376 55890
6.03908 55623.9
6.05439 55328.8
6.06971 55048.2
6.08503 54822
6.10034 54632.8
6.11566 54539.4
6.13097 54505.9
6.14629 54525.2
6.16161 54592.4
6.17692 54680.6
6.19224 54826.9
6.20756 54958
6.22287 55143.4
6.23819 55344.6
6.25351 55530.4
6.26882 55656.4
6.28414 55629.5
6.29945 55431.7
6.31477 55054.7
6.33009 54541.6
6.3454 53882.6
6.36072 53143.9
6.37604 52327.7
6.39135 51537.3
6.40667 50810.3
6.42199 50180.2
6.4373 49694.8
6.45262 49363.1
6.46793 49145.6
6.48325 49027.4
6.49857 48995
6.51388 49001.2
6.5292 49010.3
6.54452 49010.4
6.55983 48961.3
6.57515 48943.5
6.59046 48946.3
6.60578 49027.3
6.6211 49156.8
6.63641 49336.3
6.65173 49533
6.66705 49812.3
6.68236 50149
6.69768 50556.1
6.713 51021.4
6.72831 51525
6.74363 52058.4
6.75894 52610.7
6.77426 53199.4
6.78958 53802.5
6.80489 54385.8
6.82021 54936.6
6.83553 55422.9
6.85084 55803.5
6.86616 56110.1
6.88148 56346.4
6.89679 56508.1
6.91211 56539.7
6.92742 56459.5
6.94274 56306.9
6.95806 56074.8
6.97337 55783.4
6.98869 55427.9
7.00401 55034.6
7.01932 54595.4
7.03464 54084.1
7.04996 53556.3
7.06527 53040.3
7.08059 52551.1
7.0959 52056.9
7.11122 51547.7
7.12654 51079.5
7.14185 50645.5
7.15717 50242.6
7.17249 49859.8
7.1878 49506.8
7.20312 49245.6
7.21844 49056.1
7.23375 48918.2
7.24907 48828.4
7.26438 48779.6
7.2797 48717.7
7.29502 48650.6
7.31033 48545.1
7.32565 48457.8
7.34097 48362.9
7.35628 48306.2
7.3716 48220.2
7.38692 48144
7.40223 48083.1
7.41755 48101.4
7.43286 48152
7.44818 48238.7
7.4635 48326.6
7.47881 48442.1
7.49413 48583.7
7.50945 48736.2
7.52476 48870.2
7.54008 48919.5
7.55539 48903.7
7.57071 48798.2
7.58603 48598.7
7.60134 48368.6
7.61666 48092.3
7.63198 47820.1
7.64729 47515.6
7.66261 47236
7.67793 47046.4
7.69324 46950.7
7.70856 46969
7.72387 47079.7
7.73919 47304.6
7.75451 47610.1
7.76982 47944.7
7.78514 48253.8
7.80046 48530
7.81577 48715.2
7.83109 48766.4
7.84641 48668.8
7.86172 48423.6
7.87704 48062.5
7.89235 47601.6
7.90767 47150.5
7.92299 46668.8
7.9383 46196.1
7.95362 45750.9
7.96894 45362.6
7.98425 45003.4
7.99957 44663.5
8.01489 44355.5
8.0302 44043.3
8.04552 43764.5
8.06083 43529.5
8.07615 43325.1
8.09147 43163.4
8.10678 43074.2
8.1221 43040.8
8.13742 43064.5
8.15273 43156.1
8.16805 43320.8
8.18337 43476
8.19868 43680.3
8.214 43913.2
8.22931 44179.5
8.24463 44442.9
8.25995 44657
8.27526 44822.3
8.29058 44893.5
8.3059 44963.4
8.32121 44996.6
8.33653 44996.1
8.35185 44956.2
8.36716 44854.2
8.38248 44724.1
8.39779 44571.3
8.41311 44391.2
8.42843 44199.8
8.44374 44009.3
8.45906 43820.1
8.47438 43633.3
8.48969 43452.8
8.50501 43290.1
8.52032 43123.4
8.53564 42966
8.55096 42807.3
8.56627 42630.1
8.58159 42470.1
8.59691 42345.8
8.61222 42260.9
8.62754 42199.2
8.64286 42149.9
8.65817 42145
8.67349 42177.8
8.6888 42265.8
8.70412 42445.6
8.71944 42736
8.73475 43172.4
8.75007 43739.3
8.76539 44419.7
8.7807 45196
8.79602 45968.8
8.81134 46672
8.82665 47230.6
8.84197 47665.2
8.85728 47922.3
8.8726 48058.9
8.88792 48109.7
8.90323 48105.9
8.91855 48141.6
8.93387 48243.7
8.94918 48468.7
8.9645 48690.2
8.97982 48886.8
8.99513 49009.2
9.01045 49028.4
9.02576 48860.4
9.04108 48506.4
9.0564 47976.6
9.07171 47308.8
9.08703 46582.9
9.10235 45827.8
9.11766 45112.8
9.13298 44464.9
9.1483 43901
9.16361 43400
9.17893 42990.3
9.19424 42610.1
9.20956 42310.6
9.22488 42007.7
9.24019 41729.7
9.25551 41450.6
9.27083 41205.7
9.28614 40974.2
9.30146 40767.5
9.31678 40602.7
9.33209 40450.4
9.34741 40301.1
9.36272 40180.8
9.37804 40102.6
9.39336 40097.1
9.40867 40092.4
9.42399 40129.3
9.43931 40213
9.45462 40329.5
9.46994 40451.3
9.48525 40587.4
9.50057 40760.4
9.51589 40942.8
9.5312 41107.5
9.54652 41236.6
9.56184 41306.9
9.57715 41268.5
9.59247 41119.5
9.60779 40901.2
9.6231 40635.2
9.63842 40341.1
9.65373 40017.1
9.66905 39711.2
9.68437 39443.6
9.69968 39259
9.715 39148.9
9.73032 39082
9.74563 39031.8
9.76095 39025.9
9.77627 39046.2
9.79158 39131.9
9.8069 39246.2
9.82221 39330.6
9.83753 39415.6
9.85285 39494.3
9.86816 39588.5
9.88348 39674.2
9.8988 39772
9.91411 39866.4
9.92943 40008.8
9.94475 40146.5
9.96006 40321.6
9.97538 40512.4
9.99069 40742
10.006 40940.1
10.0213 41163.2
10.0366 41360.2
10.052 41585.6
10.0673 41787
10.0826 42012.2
10.0979 42245.2
10.1132 42478.8
10.1285 42747
10.1439 43037.1
10.1592 43324.7
10.1745 43530.8
10.1898 43639.3
10.2051 43680.9
10.2204 43657.2
10.2358 43650.5
10.2511 43639.7
10.2664 43680.1
10.2817 43804.9
10.297 44007.6
10.3123 44278.2
10.3277 44534.6
10.343 44748.5
10.3583 44850.2
10.3736 44881.1
10.3889 44820.2
10.4042 44672.8
10.4196 44456
10.4349 44212.6
10.4502 43939
10.4655 43712.3
10.4808 43528.8
10.4961 43389
10.5115 43313.2
10.5268 43279.8
10.5421 43313.8
10.5574 43386
10.5727 43495.8
10.588 43597.7
10.6033 43672.6
10.6187 43707.8
10.634 43693.8
10.6493 43642
10.6646 43524.7
10.6799 43363
10.6952 43188.3
10.7106 43007.9
10.7259 42842.8
10.7412 42690.9
10.7565 42558.6
10.7718 42475.2
10.7871 42446.3
10.8025 42446.9
10.8178 42486.8
10.8331 42476.2
10.8484 42422.2
10.8637 42284.7
10.879 42106.6
10.8944 41878.4
10.9097 41609.9
10.925 41343.1
10.9403 41066.5
10.9556 40788.9
10.9709 40548
10.9863 40349.2
11.0016 40161
11.0169 39969.5
11.0322 39776.6
11.0475 39581.2
11.0628 39382.7
11.0782 39176.2
11.0935 38961.5
11.1088 38737.3
11.1241 38534.3
11.1394 38361.8
11.1547 38204.5
11.1701 38036.1
11.1854 37881.8
11.2007 37737.2
11.216 37603.2
11.2313 37474.1
11.2466 37345.8
11.262 37235.3
11.2773 37138.6
11.2926 37074.1
11.3079 37034.4
11.3232 37010.7
11.3385 36973.7
11.3538 36925.6
11.3692 36862.5
11.3845 36842
11.3998 36831.1
11.4151 36820.2
11.4304 36816.4
11.4457 36809.1
11.4611 36811.8
11.4764 36838.4
11.4917 36882.2
11.507 36921.3
11.5223 36998.9
11.5376 37058.5
11.553 37106.9
11.5683 37132.7
11.5836 37161.8
11.5989 37160.7
11.6142 37132.2
11.6295 37092.3
11.6449 37040.9
11.6602 36967.3
11.6755 36877.1
11.6908 36804.2
11.7061 36759.9
11.7214 36714.2
11.7368 36710.1
11.7521 36751.4
11.7674 36836.2
11.7827 36880.6
11.798 36893.3
11.8133 36863.2
11.8287 36837.8
11.844 36817
11.8593 36791.7
11.8746 36741.4
11.8899 36719.7
11.9052 36711.9
11.9206 36709.1
11.9359 36722.9
11.9512 36732.5
11.9665 36764.1
11.9818 36798.7
11.9971 36822.1
12.0125 36827.3
12.0278 36825.4
12.0431 36839.8
12.0584 36829.2
12.0737 36809.6
12.089 36773.5
12.1044 36767.5
12.1197 36751.5
12.135 36738.2
12.1503 36732.4
12.1656 36709.1
12.1809 36682.5
12.1962 36662.3
12.2116 36632.5
12.2269 36624.4
12.2422 36608.2
12.2575 36618.5
12.2728 36585.1
12.2881 36569.9
12.3035 36560.4
12.3188 36568.7
12.3341 36553.7
12.3494 36531.9
12.3647 36501.9
12.38 36486.4
12.3954 36473.4
12.4107 36467.7
12.426 36436.6
12.4413 36398
12.4566 36354.9
12.4719 36311.7
12.4873 36245.5
12.5026 36177.2
12.5179 36117.4
12.5332 36077.3
12.5485 36055.7
12.5638 36030.6
12.5792 36008.7
12.5945 35987.8
12.6098 35981.5
12.6251 35979.9
12.6404 35982.5
12.6557 35972.1
12.6711 35984.1
12.6864 35977.2
12.7017 35961.3
12.717 35935.7
12.7323 35949.5
12.7476 35969.5
12.763 36030.1
12.7783 36094.2
12.7936 36168.2
12.8089 36246.3
12.8242 36332.1
12.8395 36385.6
12.8549 36434.2
12.8702 36425.6
12.8855 36364.9
12.9008 36305.9
12.9161 36252.5
12.9314 36219.9
12.9467 36131.2
12.9621 36055.1
12.9774 36008.2
12.9927 35975.8
13.008 35939.1
13.0233 35910.9
13.0386 35912.8
13.054 35932.9
13.0693 35907.1
13.0846 35877.6
13.0999 35906.4
13.1152 35918.5
13.1305 35905.7
13.1459 35880.3
13.1612 35856.4
13.1765 35829.7
13.1918 35799.1
13.2071 35786.7
13.2224 35814.7
13.2378 35833.4
13.2531 35858.3
13.2684 35891.1
13.2837 35921.7
13.299 35962.4
13.3143 35987
13.3297 35999.7
13.345 36024.7
13.3603 36084.8
13.3756 36192.8
13.3909 36333.9
13.4062 36492.7
13.4216 36675.3
13.4369 36876.9
13.4522 37067.2
13.4675 37259
13.4828 37415.3
13.4981 37530.5
13.5135 37622.3
13.5288 37670.5
13.5441 37702.1
13.5594 37743.8
13.5747 37802.2
13.59 37851.9
13.6054 37850.3
13.6207 37809.2
13.636 37707.7
13.6513 37560.5
13.6666 37362.8
13.6819 37168.4
13.6973 36971.3
13.7126 36795.9
13.7279 36644.8
13.7432 36538.2
13.7585 36452.8
13.7738 36367.2
13.7891 36277.1
13.8045 36195.3
13.8198 36137.6
13.8351 36100.3
13.8504 36087.3
13.8657 36076.2
13.881 36071.3
13.8964 36082.5
13.9117 36127
13.927 36147.1
13.9423 36153.8
13.9576 36193.5
13.9729 36184.5
13.9883 36138
14.0036 36060.7
14.0189 35983.4
14.0342 35853.6
14.0495 35720.8
14.0648 35595.5
14.0802 35457
14.0955 35320.4
14.1108 35200.2
14.1261 35071.3
14.1414 34982.3
14.1567 34885.3
14.1721 34814.3
14.1874 34779.4
14.2027 34743.2
14.218 34693.5
14.2333 34642.6
14.2486 34601.4
14.264 34569
14.2793 34532
14.2946 34501.4
14.3099 34468.3
14.3252 34440.8
14.3405 34392.1
14.3559 34333.9
14.3712 34307.4
14.3865 34315.1
14.4018 34325.5
14.4171 34333.9
14.4324 34326.9
14.4478 34312.1
14.4631 34281.8
14.4784 34286.2
14.4937 34296.4
14.509 34297.4
14.5243 34318.1
14.5397 34336.3
14.555 34356.4
14.5703 34395.7
14.5856 34375.5
14.6009 34317.9
14.6162 34297.2
14.6315 34271.6
14.6469 34249.5
14.6622 34218.2
14.6775 34200.9
14.6928 34163.6
14.7081 34086.2
14.7234 34043.5
14.7388 34008.4
14.7541 33968.9
14.7694 33920
14.7847 33891.7
14.8 33838.4
14.8153 33771.9
14.8307 33736.9
14.846 33721.2
14.8613 33697.7
14.8766 33642.7
14.8919 33576.4
14.9072 33530.1
14.9226 33500.1
14.9379 33459.6
14.9532 33414.6
14.9685 33394.7
14.9838 33364.7
14.9991 33363.4
15.0145 33346.9
15.0298 33333.6
15.0451 33327.9
15.0604 33320
15.0757 33320.8
15.091 33303
15.1064 33304.4
15.1217 33302.3
15.137 33285.2
15.1523 33288.8
15.1676 33320.4
15.1829 33349.7
15.1983 33367.8
15.2136 33366.8
15.2289 33396.5
15.2442 33440.3
15.2595 33496.7
15.2748 33537.8
15.2902 33583.3
15.3055 33612.7
15.3208 33630.3
15.3361 33650.3
15.3514 33696
15.3667 33722.5
15.382 33731.1
15.3974 33736.3
15.4127 33741.6
15.428 33718
15.4433 33708.5
15.4586 33666
15.4739 33612.8
15.4893 33574
15.5046 33536.8
15.5199 33513.7
15.5352 33491.6
15.5505 33456.2
15.5658 33440.7
15.5812 33428.9
15.5965 33401.7
15.6118 33381.9
15.6271 33340.4
15.6424 33296.9
15.6577 33259.2
15.6731 33243.8
15.6884 33247.9
15.7037 33263.8
15.719 33243.6
15.7343 33206
15.7496 33179.3
15.765 33166
15.7803 33139.1
15.7956 33091.7
15.8109 33058.7
15.8262 33033
15.8415 32989.7
15.8569 32944.9
15.8722 32882.4
15.8875 32804.5
15.9028 32725.7
15.9181 32683.9
15.9334 32654.4
15.9488 32607.2
15.9641 32589.9
15.9794 32591.3
15.9947 32577.2
16.01 32511.9
16.0253 32487.9
16.0407 32457.2
16.056 32418.8
16.0713 32393.4
16.0866 32362.4
16.1019 32372.6
16.1172 32375.2
16.1326 32378
16.1479 32381.3
16.1632 32386.8
16.1785 32393.4
16.1938 32372
16.2091 32356.4
16.2244 32344.8
16.2398 32320.4
16.2551 32307.7
16.2704 32311.2
16.2857 32324.2
16.301 32328.7
16.3163 32299.5
16.3317 32273.2
16.347 32273.7
16.3623 32264.1
16.3776 32266.9
16.3929 32244.1
16.4082 32229.5
16.4236 32226.4
16.4389 32205.4
16.4542 32177.4
16.4695 32143
16.4848 32099.8
16.5001 32074.5
16.5155 32052.6
16.5308 32024.2
16.5461 31979
16.5614 31948.1
16.5767 31913.4
16.592 31878.9
16.6074 31838.5
16.6227 31825.7
16.638 31812.4
16.6533 31825.7
16.6686 31815.7
16.6839 31782.7
16.6993 31749.7
16.7146 31711.4
16.7299 31682.9
16.7452 31680.5
16.7605 31695.9
16.7758 31673.2
16.7912 31643.5
16.8065 31625.7
16.8218 31611.8
16.8371 31601.1
16.8524 31571.7
16.8677 31573.8
16.8831 31557.7
16.8984 31530.1
16.9137 31492
16.929 31458
16.9443 31472
16.9596 31512.2
16.9749 31534
16.9903 31521
17.0056 31460
17.0209 31402.7
17.0362 31372.5
17.0515 31369.6
17.0668 31339.5
17.0822 31319
17.0975 31295.7
17.1128 31264.7
17.1281 31244.6
17.1434 31219.9
17.1587 31209.1
17.1741 31207
17.1894 31185
17.2047 31174.2
17.22 31158.5
17.2353 31117.7
17.2506 31091.5
17.266 31084
17.2813 31073.1
17.2966 31068.5
17.3119 31043.6
17.3272 31030.7
17.3425 31059.2
17.3579 31066.3
17.3732 31033.3
17.3885 31034.1
17.4038 31053.4
17.4191 31071.7
17.4344 31053.5
17.4498 31036.8
17.4651 31058.6
17.4804 31052.1
17.4957 30999.6
17.511 30952.2
17.5263 30947.3
17.5417 30940.5
17.557 30953.5
17.5723 30975.2
17.5876 30974.1
17.6029 30993.4
17.6182 30985.7
17.6336 30960.5
17.6489 30964.3
17.6642 30969.1
17.6795 30972.6
17.6948 31004.9
17.7101 31015.2
17.7255 31045.2
17.7408 31040.2
17.7561 30993.1
17.7714 30963.9
17.7867 30978.1
17.802 30980.6
17.8173 30946.7
17.8327 30896.5
17.848 30854.3
17.8633 30880.8
17.8786 30864.4
17.8939 30822.2
17.9092 30824.2
17.9246 30832.7
17.9399 30837.5
17.9552 30816.6
17.9705 30793.7
17.9858 30782.9
18.0011 30766.6
18.0165 30765.2
18.0318 30765.4
18.0471 30758.1
18.0624 30731.2
18.0777 30678.3
18.093 30698.4
18.1084 30705.9
18.1237 30678.3
18.139 30655.1
18.1543 30637.7
18.1696 30642.4
18.1849 30614.4
18.2003 30605
18.2156 30621.8
18.2309 30648.5
18.2462 30650.1
18.2615 30638.4
18.2768 30624
18.2922 30628.7
18.3075 30648
18.3228 30663.3
18.3381 30655
18.3534 30664.1
18.3687 30686.5
18.3841 30697.6
18.3994 30716.1
18.4147 30728.2
18.43 30761.6
18.4453 30763
18.4606 30720.5
18.476 30701.9
18.4913 30683
18.5066 30645.1
18.5219 30626
18.5372 30612.6
18.5525 30581.3
18.5679 30548.8
18.5832 30526.1
18.5985 30515.9
18.6138 30511.4
18.6291 30486.7
18.6444 30440.4
18.6597 30442.3
18.6751 30432.4
18.6904 30414.6
18.7057 30417.1
18.721 30397.8
18.7363 30354.9
18.7516 30369.5
18.767 30401.9
18.7823 30362.2
18.7976 30321.8
18.8129 30300.2
18.8282 30250.6
18.8435 30217.7
18.8589 30192.4
18.8742 30166.7
18.8895 30153.5
18.9048 30134.1
18.9201 30069.3
18.9354 30022.7
18.9508 30012.3
18.9661 29999.9
18.9814 29991.7
18.9967 29957.7
19.012 29897.5
19.0273 29898.9
19.0427 29950.1
19.058 29961.9
19.0733 29950.8
19.0886 29916.2
19.1039 29867.9
19.1192 29841.3
19.1346 29830.7
19.1499 29827.2
19.1652 29812.2
19.1805 29789
19.1958 29799.9
19.2111 29787.8
19.2265 29791.3
19.2418 29801.9
19.2571 29773.9
19.2724 29744.1
19.2877 29737.4
19.303 29716.5
19.3184 29644.7
19.3337 29591.4
19.349 29608.2
19.3643 29613.3
19.3796 29582.3
19.3949 29564
19.4102 29568
19.4256 29554.5
19.4409 29532.6
19.4562 29500.1
19.4715 29479.3
19.4868 29465.6
19.5021 29438.2
19.5175 29439.4
19.5328 29425.8
19.5481 29402.9
19.5634 29380.7
19.5787 29372.6
19.594 29364.9
19.6094 29357.1
19.6247 29340.6
19.64 29324.1
19.6553 29312.7
19.6706 29298.9
19.6859 29278.9
19.7013 29269.1
19.7166 29267.7
19.7319 29253.7
19.7472 29208.5
19.7625 29178.1
19.7778 29203.3
19.7932 29207
19.8085 29165.7
19.8238 29154
19.8391 29140.4
19.8544 29101.6
19.8697 29090.2
19.8851 29080.4
19.9004 29063.8
19.9157 29049.1
19.931 29063.6
19.9463 29090.2
19.9616 29040.2
19.977 28986
19.9923 29022.2
20.0076 29054.6
20.0229 29076.5
20.0382 29058.1
20.0535 29023.6
20.0689 29020.2
20.0842 29034.5
20.0995 29032.1
20.1148 29005
20.1301 28986.3
20.1454 28954.9
20.1608 28943.7
20.1761 28987.9
20.1914 28965.1
20.2067 28910
20.222 28887.3
20.2373 28926.9
20.2526 28956.3
20.268 28961.5
20.2833 28950.8
20.2986 28952.5
20.3139 28948
20.3292 28959.6
20.3445 28947.4
20.3599 28919.4
20.3752 28907.1
20.3905 28925.6
20.4058 28951.5
20.4211 28957.8
20.4364 28944.1
20.4518 28949.7
20.4671 28926
20.4824 28922
20.4977 28916.3
20.513 28916.4
20.5283 28961.7
20.5437 28948.8
20.559 28934.4
20.5743 28900.6
20.5896 28871.4
20.6049 28892.9
20.6202 28896.8
20.6356 28873.4
20.6509 28891
20.6662 28899.6
20.6815 28886.3
20.6968 28881.1
20.7121 28863.2
20.7275 28856.1
20.7428 28873.1
20.7581 28835.6
20.7734 28792.3
20.7887 28796
20.804 28823.3
20.8194 28839.3
20.8347 28818.5
20.85 28820.4
20.8653 28772
20.8806 28786.1
20.8959 28807.4
20.9113 28784
20.9266 28805
20.9419 28800.1
20.9572 28767.1
20.9725 28758.1
20.9878 28723.6
21.0031 28708
21.0185 28769
21.0338 28766
21.0491 28736
21.0644 28723.2
21.0797 28728.4
21.095 28749.7
21.1104 28761.3
21.1257 28768
21.141 28772.4
21.1563 28744.5
21.1716 28746.3
21.1869 28788.1
21.2023 28764.4
21.2176 28717
21.2329 28699.7
21.2482 28701.6
21.2635 28693.4
21.2788 28696.5
21.2942 28717.5
21.3095 28712.4
21.3248 28743.3
21.3401 28802
21.3554 28783.8
21.3707 28665.2
21.3861 28683.4
21.4014 28667.7
21.4167 28645.5
21.432 28693.1
21.4473 28714
21.4626 28673.7
21.478 28651.8
21.4933 28693.3
21.5086 28722.2
21.5239 28702
21.5392 28683.2
21.5545 28642.6
21.5699 28647
21.5852 28637.2
21.6005 28652.1
21.6158 28645.3
21.6311 28590.2
21.6464 28595.1
21.6618 28596.4
21.6771 28646.7
21.6924 28670.7
21.7077 28656.7
21.723 28646.5
21.7383 28633.6
21.7537 28623.8
21.769 28648
21.7843 28674.9
21.7996 28690.1
21.8149 28693.3
21.8302 28652.3
21.8455 28660.4
21.8609 28660
21.8762 28648.3
21.8915 28663.5
21.9068 28665.8
21.9221 28637.6
21.9374 28684.8
21.9528 28700.6
21.9681 28652.4
21.9834 28664.7
21.9987 28682.9
22.014 28665.5
22.0293 28720.6
22.0447 28757.4
22.06 28764.6
22.0753 28759.3
22.0906 28714.7
22.1059 28719.3
22.1212 28767.6
22.1366 28788.8
22.1519 28843.9
22.1672 28829.3
22.1825 28801.1
22.1978 28805.2
22.2131 28810.9
22.2285 28784.2
22.2438 28777.2
22.2591 28785.6
22.2744 28764.3
22.2897 28721.5
22.305 28776.6
22.3204 28829.8
22.3357 28859.3
22.351 28855.7
22.3663 28858.8
22.3816 28890.3
22.3969 28880.3
22.4123 28866.9
22.4276 28871.3
22.4429 28870.8
22.4582 28885
22.4735 28898.1
22.4888 28905.1
22.5042 28910.7
22.5195 28951.9
22.5348 28927
22.5501 28925.8
22.5654 28934.5
22.5807 28894.5
22.596 28889.9
22.6114 28924.8
22.6267 28862.8
22.642 28850.2
22.6573 28879
22.6726 28936.2
22.6879 28969
22.7033 28987.1
22.7186 28944.1
22.7339 28923.8
22.7492 28883.3
22.7645 28906.1
22.7798 28927.4
22.7952 28946.2
22.8105 28963.5
22.8258 29018.1
22.8411 28993.4
22.8564 29026.2
22.8717 29063.1
22.8871 29031.6
22.9024 29038.9
22.9177 29007.2
22.933 28994
22.9483 29047.2
22.9636 29081.7
22.979 29059.3
22.9943 29029.3
