# xPDFsuite Configuration #
[PDF]
wavelength = 0.1
dataformat = QA
inputfile = B3_Bronze-3nm_ss_04.chi
backgroundfile = B3_Li-bkg_ss.chi
mode = xray
bgscale = 0.98705
composition = Ti O2
outputtype = iq
qmaxinst = 23.0
qmin = 0.1
qmax = 23.0
rmax = 30.0
rmin = 0.0
rstep = 0.01
rpoly = 0.9

[Misc]
inputdir = E:/Beamtime/PETRA-III_September-2019/BeamData/processed/Run1/B3/chi/chi_w_sigmas/chi_scaled
savedir = E:/Beamtime/PETRA-III_September-2019/BeamData/processed/Run1/B3
backgroundfilefull = E:/Beamtime/PETRA-III_September-2019/BeamData/processed/Run1/B3/chi/chi_w_sigmas/chi_scaled/B3_Li-bkg_ss.chi

#### start data
#S 1
#L Q($\AA^{-1}$)  intensity(a.u.)
0.111649 0
0.126965 0
0.142282 0
0.157598 0
0.172914 0
0.188231 0
0.203547 0
0.218864 0
0.23418 0
0.249496 0
0.264813 0
0.280129 0
0.295445 0
0.310762 0
0.326078 0
0.341394 0
0.356711 0
0.372027 0
0.387343 0
0.40266 0
0.417976 0
0.433292 0
0.448609 0
0.463925 0
0.479241 0
0.494558 0
0.509874 0
0.525191 0
0.540507 0
0.555823 0
0.57114 0
0.586456 0
0.601772 0
0.617089 0
0.632405 0
0.647721 0
0.663038 0
0.678354 0
0.69367 0
0.708987 0
0.724303 0
0.739619 0
0.754936 0
0.770252 0
0.785568 0
0.800885 0
0.816201 0
0.831518 0
0.846834 0
0.86215 1.28443
0.877467 92217.7
0.892783 92045.6
0.908099 92188.8
0.923416 93217.8
0.938732 94826
0.954048 96700.9
0.969365 98469.1
0.984681 99606.6
0.999997 99982
1.01531 99453.8
1.03063 97518.4
1.04595 94546.2
1.06126 90201.3
1.07658 84613.8
1.0919 78741.5
1.10721 71535.1
1.12253 64753.8
1.13784 57459.4
1.15316 50723.6
1.16848 44534.2
1.18379 38557.2
1.19911 33454.8
1.21443 28676.9
1.22974 24516.3
1.24506 20974.5
1.26038 17915.5
1.27569 15529.7
1.29101 13611.7
1.30632 12263.9
1.32164 11397.7
1.33696 10884.6
1.35227 10930.3
1.36759 11397.1
1.38291 12194.8
1.39822 13304.6
1.41354 14418.8
1.42886 15514.3
1.44417 16530.5
1.45949 17546.8
1.4748 18693.7
1.49012 19944.8
1.50544 21757.4
1.52075 24117.9
1.53607 27572.8
1.55139 32244.3
1.5667 38061.6
1.58202 46155.1
1.59733 55584.3
1.61265 66925.4
1.62797 79825.2
1.64328 93494
1.6586 109038
1.67392 124049
1.68923 139305
1.70455 153382
1.71987 165788
1.73518 176525
1.7505 184854
1.76581 191536
1.78113 195637
1.79645 197484
1.81176 196879
1.82708 194229
1.8424 189275
1.85771 183535
1.87303 176559
1.88835 169582
1.90366 162918
1.91898 156869
1.93429 152029
1.94961 148444
1.96493 146168
1.98024 145017
1.99556 144444
2.01088 144123
2.02619 143254
2.04151 141580
2.05683 138578
2.07214 134457
2.08746 129377
2.10277 123412
2.11809 117244
2.13341 110529
2.14872 104150
2.16404 97999.8
2.17936 92301.2
2.19467 87455.6
2.20999 83211.5
2.22531 80031.9
2.24062 77529.3
2.25594 75631
2.27125 74140.8
2.28657 72807.5
2.30189 71565.9
2.3172 70138.5
2.33252 68625
2.34784 66810.8
2.36315 64948.7
2.37847 63043.9
2.39379 60911.9
2.4091 59205.5
2.42442 57436.3
2.43973 56241
2.45505 55294
2.47037 54633.2
2.48568 54484.2
2.501 54619.9
2.51632 54948.4
2.53163 55290
2.54695 55939.9
2.56226 56524.2
2.57758 57069.8
2.5929 57499.3
2.60821 57850.6
2.62353 57885.2
2.63885 57589.8
2.65416 57057.8
2.66948 56352.7
2.6848 55642.7
2.70011 54897.2
2.71543 54382.1
2.73074 53911.6
2.74606 53692
2.76138 53772.6
2.77669 54222.5
2.79201 55145.5
2.80733 56439.3
2.82264 58470.7
2.83796 61169.8
2.85328 64671.5
2.86859 69216.7
2.88391 74553.7
2.89922 81196.5
2.91454 88563.3
2.92986 96735.9
2.94517 105424
2.96049 114144
2.97581 122999
2.99112 130816
3.00644 137757
3.02176 143001
3.03707 146424
3.05239 147950
3.0677 147515
3.08302 145217
3.09834 141366
3.11365 136475
3.12897 131003
3.14429 125552
3.1596 120486
3.17492 116423
3.19024 113291
3.20555 111473
3.22087 110699
3.23618 110697
3.2515 111065
3.26682 111480
3.28213 111577
3.29745 111022
3.31277 109794
3.32808 107720
3.3434 104865
3.35872 101612
3.37403 97808.2
3.38935 94038.6
3.40466 90208.7
3.41998 86665.8
3.4353 83483.1
3.45061 80603.4
3.46593 78356.1
3.48125 76432
3.49656 75021.8
3.51188 73980.9
3.52719 73434
3.54251 73375.9
3.55783 73717.6
3.57314 74376.8
3.58846 75352.8
3.60378 76607.4
3.61909 77980.6
3.63441 79375.4
3.64973 80659.4
3.66504 81740.8
3.68036 82653.3
3.69567 83179.1
3.71099 83407.4
3.72631 83393.8
3.74162 83187.2
3.75694 83072
3.77226 82973.1
3.78757 83083.8
3.80289 83500.3
3.81821 84237.7
3.83352 85371.8
3.84884 86867.9
3.86415 88580.7
3.87947 90403.6
3.89479 92070.9
3.9101 93374.5
3.92542 94226.8
3.94074 94539.7
3.95605 94286.3
3.97137 93522
3.98669 92219.4
4.002 90688.1
4.01732 88925.5
4.03263 87142.9
4.04795 85563.1
4.06327 84356.4
4.07858 83614.5
4.0939 83324.8
4.10922 83445.5
4.12453 83855.9
4.13985 84475.9
4.15517 85051.8
4.17048 85382.1
4.1858 85396.2
4.20111 85048.2
4.21643 84409.1
4.23175 83405.7
4.24706 82112.2
4.26238 80595.1
4.2777 78948.7
4.29301 77392.6
4.30833 75916.5
4.32365 74662.9
4.33896 73669.5
4.35428 73049.2
4.36959 72626.8
4.38491 72578.8
4.40023 72743.9
4.41554 73133.9
4.43086 73615.7
4.44618 74115.5
4.46149 74582.6
4.47681 74821.3
4.49213 74841.5
4.50744 74548
4.52276 73924.5
4.53807 72969
4.55339 71735.7
4.56871 70202.1
4.58402 68516.5
4.59934 66706.8
4.61466 64890.4
4.62997 63126.2
4.64529 61430.7
4.6606 59896.3
4.67592 58485.2
4.69124 57309.7
4.70655 56262.9
4.72187 55450.3
4.73719 54877.5
4.7525 54537.1
4.76782 54474
4.78314 54726.5
4.79845 55260
4.81377 56118.7
4.82908 57209.9
4.8444 58611.6
4.85972 60220.6
4.87503 61979
4.89035 63821.2
4.90567 65725.3
4.92098 67694.5
4.9363 69700
4.95162 71707.5
4.96693 73725.9
4.98225 75846
4.99756 78270.5
5.01288 80738.1
5.0282 83098.1
5.04351 85342.1
5.05883 87017.7
5.07415 88191.3
5.08946 88718.9
5.10478 88427.9
5.1201 87605.3
5.13541 86088.3
5.15073 84339.6
5.16604 82312.3
5.18136 80285.3
5.19668 78457.9
5.21199 76913.6
5.22731 75659.4
5.24263 74764.6
5.25794 74045.7
5.27326 73586.4
5.28858 73329.7
5.30389 73351
5.31921 73765.2
5.33452 74474.4
5.34984 75468.7
5.36516 76444.2
5.38047 77279.9
5.39579 77666.1
5.41111 77514.6
5.42642 76684.9
5.44174 75231.6
5.45706 73089.2
5.47237 70484.8
5.48769 67495
5.503 64402.4
5.51832 61501.7
5.53364 58810.9
5.54895 56576.7
5.56427 54712.4
5.57959 53220
5.5949 52066.3
5.61022 51082.1
5.62553 50275.3
5.64085 49495.8
5.65617 48793.9
5.67148 48217.5
5.6868 47786.1
5.70212 47408.3
5.71743 47126.9
5.73275 46964.6
5.74807 46915.8
5.76338 47034.3
5.7787 47357.6
5.79401 47873.4
5.80933 48598.7
5.82465 49406.3
5.83996 50322.9
5.85528 51298.1
5.8706 52343.9
5.88591 53374.6
5.90123 54320.5
5.91655 55155.3
5.93186 55891.6
5.94718 56446.5
5.96249 56811.2
5.97781 57026.6
5.99313 57041.6
6.00844 56921
6.02376 56640.6
6.03908 56345.3
6.05439 56024.1
6.06971 55729.3
6.08503 55501.9
6.10034 55328
6.11566 55251
6.13097 55205.7
6.14629 55186.8
6.16161 55193.3
6.17692 55231.9
6.19224 55369.3
6.20756 55512.6
6.22287 55709.4
6.23819 55885.6
6.25351 56073.7
6.26882 56192.2
6.28414 56187.7
6.29945 55989.2
6.31477 55589.3
6.33009 55052
6.3454 54372.5
6.36072 53588.5
6.37604 52733.6
6.39135 51887.1
6.40667 51125.5
6.42199 50476.5
6.4373 49981.3
6.45262 49602.8
6.46793 49393.7
6.48325 49268.4
6.49857 49243
6.51388 49228.9
6.5292 49261
6.54452 49239.1
6.55983 49220.4
6.57515 49223.4
6.59046 49240.2
6.60578 49314.3
6.6211 49418.9
6.63641 49619.2
6.65173 49801.2
6.66705 50071.1
6.68236 50386
6.69768 50763.2
6.713 51193.9
6.72831 51678
6.74363 52192.5
6.75894 52764.4
6.77426 53371.7
6.78958 54008.6
6.80489 54638.6
6.82021 55256.4
6.83553 55829
6.85084 56315
6.86616 56709.7
6.88148 56991.7
6.89679 57197.5
6.91211 57295.3
6.92742 57270.2
6.94274 57155.6
6.95806 56930.5
6.97337 56634.3
6.98869 56256.6
7.00401 55809.9
7.01932 55325.5
7.03464 54788.1
7.04996 54259.3
7.06527 53711.8
7.08059 53166.3
7.0959 52646.6
7.11122 52122.4
7.12654 51624.8
7.14185 51152.4
7.15717 50721.5
7.17249 50295.2
7.1878 49932.7
7.20312 49641.2
7.21844 49410.2
7.23375 49231.9
7.24907 49128.3
7.26438 49082.9
7.2797 49029.5
7.29502 49001
7.31033 48958.3
7.32565 48935.5
7.34097 48890.1
7.35628 48854.9
7.3716 48787.9
7.38692 48698.2
7.40223 48620.9
7.41755 48598.2
7.43286 48623.4
7.44818 48695.4
7.4635 48801
7.47881 48935.7
7.49413 49148.7
7.50945 49340.4
7.52476 49547.5
7.54008 49643.8
7.55539 49677.1
7.57071 49631.7
7.58603 49495.8
7.60134 49298.8
7.61666 49026.3
7.63198 48755.4
7.64729 48455.4
7.66261 48190.4
7.67793 47972.6
7.69324 47865.1
7.70856 47878.5
7.72387 48030.1
7.73919 48272.3
7.75451 48590.5
7.76982 48939
7.78514 49244.4
7.80046 49515.1
7.81577 49678
7.83109 49741.9
7.84641 49656.9
7.86172 49441.7
7.87704 49078
7.89235 48616.5
7.90767 48110.4
7.92299 47599.2
7.9383 47122.4
7.95362 46678
7.96894 46272.4
7.98425 45880.5
7.99957 45519.2
8.01489 45180.9
8.0302 44849.6
8.04552 44524.8
8.06083 44227.5
8.07615 43959.3
8.09147 43769.5
8.10678 43651.6
8.1221 43571.9
8.13742 43569.6
8.15273 43627.2
8.16805 43776.5
8.18337 43939.6
8.19868 44175.6
8.214 44430.3
8.22931 44728.8
8.24463 45024.5
8.25995 45260.5
8.27526 45438.9
8.29058 45565.4
8.3059 45679.9
8.32121 45751
8.33653 45767.8
8.35185 45719.9
8.36716 45622.5
8.38248 45493.5
8.39779 45342.2
8.41311 45154.8
8.42843 44959
8.44374 44761.1
8.45906 44563.3
8.47438 44363.1
8.48969 44155.1
8.50501 43971.9
8.52032 43787
8.53564 43625.9
8.55096 43472.4
8.56627 43321.8
8.58159 43153.7
8.59691 43016
8.61222 42904.6
8.62754 42805.6
8.64286 42736.7
8.65817 42718.8
8.67349 42760.8
8.6888 42851.8
8.70412 43010.3
8.71944 43301.9
8.73475 43725.2
8.75007 44271.4
8.76539 44937.7
8.7807 45710
8.79602 46456.7
8.81134 47184.2
8.82665 47803.2
8.84197 48313
8.85728 48618.6
8.8726 48812
8.88792 48873.4
8.90323 48919.1
8.91855 48998.4
8.93387 49158.1
8.94918 49409.9
8.9645 49638.3
8.97982 49825.7
8.99513 49921
9.01045 49928
9.02576 49746
9.04108 49340.9
9.0564 48772.8
9.07171 48121.8
9.08703 47422
9.10235 46670.3
9.11766 45936.5
9.13298 45296.5
9.1483 44721.4
9.16361 44226.9
9.17893 43816.3
9.19424 43451.1
9.20956 43111.3
9.22488 42780.2
9.24019 42476.7
9.25551 42219.7
9.27083 41964.6
9.28614 41724.1
9.30146 41516.7
9.31678 41335.5
9.33209 41172.7
9.34741 41014
9.36272 40877.6
9.37804 40779.7
9.39336 40724.3
9.40867 40705.1
9.42399 40728.2
9.43931 40798
9.45462 40898
9.46994 41043.8
9.48525 41208.9
9.50057 41385
9.51589 41588.9
9.5312 41744.9
9.54652 41860.2
9.56184 41890.9
9.57715 41844
9.59247 41688.2
9.60779 41445.5
9.6231 41166.8
9.63842 40878.9
9.65373 40574.5
9.66905 40263.2
9.68437 40017.2
9.69968 39831
9.715 39686.2
9.73032 39583.9
9.74563 39540.2
9.76095 39537.8
9.77627 39570.1
9.79158 39612.8
9.8069 39685.5
9.82221 39753.1
9.83753 39824.5
9.85285 39924.9
9.86816 40027.3
9.88348 40117.3
9.8988 40209.7
9.91411 40298.8
9.92943 40437.7
9.94475 40599.1
9.96006 40802.7
9.97538 41015
9.99069 41250.5
10.006 41492.3
10.0213 41760
10.0366 42004.4
10.052 42234.3
10.0673 42466.8
10.0826 42702.8
10.0979 42952
10.1132 43192.3
10.1285 43487.5
10.1439 43793.5
10.1592 44096.4
10.1745 44322.5
10.1898 44455.6
10.2051 44484
10.2204 44462.2
10.2358 44414.6
10.2511 44375.5
10.2664 44359.2
10.2817 44450.8
10.297 44639.7
10.3123 44886.4
10.3277 45127.1
10.343 45337.2
10.3583 45448.3
10.3736 45475.5
10.3889 45416.6
10.4042 45281.4
10.4196 45080.9
10.4349 44872.2
10.4502 44645
10.4655 44456.8
10.4808 44294.1
10.4961 44183.1
10.5115 44095.9
10.5268 44076.5
10.5421 44100.6
10.5574 44174.9
10.5727 44268.8
10.588 44366.5
10.6033 44465.6
10.6187 44537.2
10.634 44514.3
10.6493 44442.7
10.6646 44312.4
10.6799 44142.8
10.6952 43947.1
10.7106 43771
10.7259 43601.1
10.7412 43464.7
10.7565 43357.9
10.7718 43300.9
10.7871 43288.5
10.8025 43302.1
10.8178 43320.6
10.8331 43308.4
10.8484 43243.7
10.8637 43120.2
10.879 42928.9
10.8944 42707.6
10.9097 42456.7
10.925 42199.7
10.9403 41898
10.9556 41625.2
10.9709 41372.1
10.9863 41179.5
11.0016 40986.6
11.0169 40797.1
11.0322 40602
11.0475 40417.3
11.0628 40208.5
11.0782 40010.7
11.0935 39790.1
11.1088 39578.3
11.1241 39378.4
11.1394 39190
11.1547 38999.2
11.1701 38802.4
11.1854 38642
11.2007 38488.8
11.216 38334.3
11.2313 38180.1
11.2466 38027.3
11.262 37896.4
11.2773 37816.6
11.2926 37782
11.3079 37737.7
11.3232 37702
11.3385 37649.1
11.3538 37620.7
11.3692 37586.9
11.3845 37567.9
11.3998 37549.2
11.4151 37530.4
11.4304 37513.9
11.4457 37498.6
11.4611 37533.1
11.4764 37560.2
11.4917 37604.6
11.507 37663.2
11.5223 37747.1
11.5376 37787.7
11.553 37835.1
11.5683 37874.7
11.5836 37905.5
11.5989 37896.3
11.6142 37863.8
11.6295 37814.1
11.6449 37751.5
11.6602 37674.8
11.6755 37588.1
11.6908 37514.1
11.7061 37473.7
11.7214 37433.1
11.7368 37406.9
11.7521 37424.4
11.7674 37480.3
11.7827 37510.8
11.798 37555.5
11.8133 37573.9
11.8287 37568.4
11.844 37540.5
11.8593 37487
11.8746 37439.5
11.8899 37434.4
11.9052 37434.5
11.9206 37420.3
11.9359 37402
11.9512 37413.4
11.9665 37446.5
11.9818 37509.7
11.9971 37529.6
12.0125 37561
12.0278 37570.8
12.0431 37585.3
12.0584 37602.3
12.0737 37605.7
12.089 37573.9
12.1044 37538.6
12.1197 37519
12.135 37508.1
12.1503 37493.4
12.1656 37467.7
12.1809 37455
12.1962 37453.7
12.2116 37462.8
12.2269 37462.6
12.2422 37460.5
12.2575 37444.4
12.2728 37403.6
12.2881 37380
12.3035 37358.2
12.3188 37344
12.3341 37319.8
12.3494 37290.9
12.3647 37265.7
12.38 37246.6
12.3954 37229.1
12.4107 37209.3
12.426 37182.4
12.4413 37149.1
12.4566 37114.7
12.4719 37079.9
12.4873 37039
12.5026 36991.2
12.5179 36954.3
12.5332 36879.2
12.5485 36826.4
12.5638 36779.5
12.5792 36763
12.5945 36757.3
12.6098 36752.1
12.6251 36726.2
12.6404 36723.5
12.6557 36697.2
12.6711 36718.9
12.6864 36718.3
12.7017 36700.6
12.717 36684
12.7323 36670.8
12.7476 36665.9
12.763 36687
12.7783 36758
12.7936 36854.4
12.8089 36943.4
12.8242 37038.8
12.8395 37120.8
12.8549 37170.2
12.8702 37150
12.8855 37088.6
12.9008 37024.4
12.9161 36962.6
12.9314 36905.7
12.9467 36840
12.9621 36790.5
12.9774 36718.1
12.9927 36672.3
13.008 36650
13.0233 36632.1
13.0386 36625.3
13.054 36629.6
13.0693 36615.5
13.0846 36590.4
13.0999 36583.6
13.1152 36581.2
13.1305 36570.3
13.1459 36546.8
13.1612 36529.6
13.1765 36497.1
13.1918 36485.8
13.2071 36496.1
13.2224 36523.8
13.2378 36554.8
13.2531 36587.9
13.2684 36647.4
13.2837 36685.9
13.299 36714.2
13.3143 36718.1
13.3297 36737.3
13.345 36779.8
13.3603 36856.7
13.3756 36963.6
13.3909 37097
13.4062 37239
13.4216 37423.9
13.4369 37631.9
13.4522 37836.9
13.4675 38049
13.4828 38211.7
13.4981 38329.8
13.5135 38403.9
13.5288 38451.2
13.5441 38497.9
13.5594 38551.8
13.5747 38624.6
13.59 38664.7
13.6054 38662.8
13.6207 38595.7
13.636 38463.7
13.6513 38300.2
13.6666 38128.7
13.6819 37935
13.6973 37751.7
13.7126 37585.9
13.7279 37456.1
13.7432 37344.3
13.7585 37239.1
13.7738 37154.6
13.7891 37068.7
13.8045 36996.8
13.8198 36937.3
13.8351 36900.9
13.8504 36860.9
13.8657 36839.8
13.881 36837.7
13.8964 36863.1
13.9117 36884.3
13.927 36897.3
13.9423 36906.1
13.9576 36947.5
13.9729 36934
13.9883 36894.3
14.0036 36825.2
14.0189 36750.6
14.0342 36621.9
14.0495 36496.2
14.0648 36367.3
14.0802 36248.3
14.0955 36104.4
14.1108 35981.6
14.1261 35854.1
14.1414 35747.6
14.1567 35667
14.1721 35594.7
14.1874 35553.7
14.2027 35497.5
14.218 35426.6
14.2333 35379.8
14.2486 35350.2
14.264 35328.9
14.2793 35313.2
14.2946 35289.4
14.3099 35249.4
14.3252 35202.3
14.3405 35157.3
14.3559 35112.1
14.3712 35075.4
14.3865 35061.5
14.4018 35053.3
14.4171 35050.2
14.4324 35047.7
14.4478 35044.4
14.4631 35023.6
14.4784 35036.1
14.4937 35048.9
14.509 35076.9
14.5243 35098.4
14.5397 35104
14.555 35129.7
14.5703 35168
14.5856 35171.3
14.6009 35150.4
14.6162 35146.2
14.6315 35126.6
14.6469 35087.7
14.6622 35045.6
14.6775 35008.1
14.6928 34963.6
14.7081 34901.2
14.7234 34883.8
14.7388 34835
14.7541 34782.8
14.7694 34716.5
14.7847 34667.1
14.8 34643.5
14.8153 34610.4
14.8307 34561.1
14.846 34523.5
14.8613 34470.8
14.8766 34398.2
14.8919 34333.3
14.9072 34287.6
14.9226 34260.9
14.9379 34212.3
14.9532 34186.5
14.9685 34194.5
14.9838 34189.7
14.9991 34165.2
15.0145 34124.3
15.0298 34092.9
15.0451 34079.4
15.0604 34085.3
15.0757 34087.9
15.091 34084.3
15.1064 34072.1
15.1217 34065.2
15.137 34028.6
15.1523 34022.1
15.1676 34066
15.1829 34097.8
15.1983 34151.1
15.2136 34191.2
15.2289 34199.1
15.2442 34222.2
15.2595 34253.4
15.2748 34271.1
15.2902 34308.8
15.3055 34328.4
15.3208 34342.6
15.3361 34388.8
15.3514 34430.2
15.3667 34453.4
15.382 34459.1
15.3974 34481.3
15.4127 34513.4
15.428 34496.8
15.4433 34463.2
15.4586 34425.1
15.4739 34361.9
15.4893 34319.8
15.5046 34293.4
15.5199 34263.9
15.5352 34227.2
15.5505 34180.5
15.5658 34151.4
15.5812 34141.9
15.5965 34140
15.6118 34108.7
15.6271 34079.3
15.6424 34054.2
15.6577 34033.8
15.6731 34034.5
15.6884 34032.8
15.7037 34005.9
15.719 33966
15.7343 33947.2
15.7496 33921
15.765 33868.4
15.7803 33847.5
15.7956 33837.4
15.8109 33816.7
15.8262 33798.9
15.8415 33771
15.8569 33716.3
15.8722 33650.1
15.8875 33578.2
15.9028 33533.8
15.9181 33514.6
15.9334 33456.4
15.9488 33386.7
15.9641 33347.6
15.9794 33345.4
15.9947 33334.2
16.01 33274.4
16.0253 33261.7
16.0407 33256.2
16.056 33214.1
16.0713 33188.7
16.0866 33149.9
16.1019 33142.2
16.1172 33145.1
16.1326 33151.3
16.1479 33157.1
16.1632 33161.2
16.1785 33175.5
16.1938 33166.8
16.2091 33141.5
16.2244 33130.3
16.2398 33105.5
16.2551 33083.3
16.2704 33080.3
16.2857 33096.7
16.301 33094.6
16.3163 33086.2
16.3317 33084.9
16.347 33074.7
16.3623 33074.9
16.3776 33073.7
16.3929 33028.9
16.4082 32998.6
16.4236 32990.8
16.4389 32964.1
16.4542 32912.1
16.4695 32868.3
16.4848 32862.8
16.5001 32875.2
16.5155 32881.9
16.5308 32839.2
16.5461 32796.7
16.5614 32755.3
16.5767 32703.6
16.592 32667
16.6074 32612.6
16.6227 32602.6
16.638 32610.7
16.6533 32595
16.6686 32568.7
16.6839 32548.9
16.6993 32527.3
16.7146 32488.7
16.7299 32489.2
16.7452 32497.2
16.7605 32477.7
16.7758 32432.2
16.7912 32431
16.8065 32426.7
16.8218 32398.7
16.8371 32357
16.8524 32318.2
16.8677 32326.8
16.8831 32324.9
16.8984 32327.6
16.9137 32309.6
16.929 32280.5
16.9443 32286.4
16.9596 32291.2
16.9749 32284.9
16.9903 32263.5
17.0056 32229.4
17.0209 32191.8
17.0362 32167.6
17.0515 32156.8
17.0668 32135
17.0822 32125.3
17.0975 32112.6
17.1128 32082.9
17.1281 32056.2
17.1434 32046.7
17.1587 32038.8
17.1741 32011.8
17.1894 31990.4
17.2047 32005
17.22 32005.2
17.2353 32000.5
17.2506 31983.7
17.266 31946.6
17.2813 31919.8
17.2966 31891.9
17.3119 31856.8
17.3272 31818.4
17.3425 31800
17.3579 31794.7
17.3732 31773
17.3885 31822.3
17.4038 31906.3
17.4191 31915.9
17.4344 31871
17.4498 31840.7
17.4651 31847.2
17.4804 31851.5
17.4957 31840.3
17.511 31814.2
17.5263 31823.6
17.5417 31799.7
17.557 31787
17.5723 31802.2
17.5876 31788.8
17.6029 31812.8
17.6182 31839.9
17.6336 31851.3
17.6489 31858.1
17.6642 31872
17.6795 31873.4
17.6948 31876.9
17.7101 31851.7
17.7255 31835.4
17.7408 31827.6
17.7561 31777.7
17.7714 31757.5
17.7867 31780
17.802 31801.4
17.8173 31774.3
17.8327 31727.6
17.848 31709
17.8633 31707.5
17.8786 31681.5
17.8939 31656.2
17.9092 31683.1
17.9246 31709.6
17.9399 31724.1
17.9552 31702.1
17.9705 31661.6
17.9858 31655.4
18.0011 31644.7
18.0165 31626.3
18.0318 31621.7
18.0471 31607.4
18.0624 31573.7
18.0777 31533.6
18.093 31537.8
18.1084 31520.5
18.1237 31478.1
18.139 31458.4
18.1543 31421.2
18.1696 31416.8
18.1849 31388
18.2003 31389.1
18.2156 31418.1
18.2309 31450.8
18.2462 31445.8
18.2615 31443
18.2768 31471.8
18.2922 31469.4
18.3075 31473.6
18.3228 31490
18.3381 31512.8
18.3534 31529.4
18.3687 31548.4
18.3841 31542.2
18.3994 31554.2
18.4147 31583.6
18.43 31621.9
18.4453 31614
18.4606 31561
18.476 31540.9
18.4913 31521.3
18.5066 31458.6
18.5219 31450
18.5372 31419.6
18.5525 31380.4
18.5679 31360.9
18.5832 31336.4
18.5985 31320.6
18.6138 31316.2
18.6291 31307.3
18.6444 31282.3
18.6597 31249.2
18.6751 31230
18.6904 31252.1
18.7057 31245.8
18.721 31211.8
18.7363 31177.6
18.7516 31171.8
18.767 31188.5
18.7823 31155.4
18.7976 31085.4
18.8129 31072.4
18.8282 31081.4
18.8435 31065.4
18.8589 31039.2
18.8742 31025.3
18.8895 31007.3
18.9048 30952.1
18.9201 30880.1
18.9354 30875.9
18.9508 30881.4
18.9661 30862.9
18.9814 30835
18.9967 30785.9
19.012 30722.6
19.0273 30725
19.0427 30777.9
19.058 30774.2
19.0733 30758.6
19.0886 30725.1
19.1039 30723.1
19.1192 30690.8
19.1346 30660.1
19.1499 30646.6
19.1652 30644.5
19.1805 30616.9
19.1958 30632.2
19.2111 30651.8
19.2265 30662.7
19.2418 30687.2
19.2571 30672.8
19.2724 30621.6
19.2877 30593.2
19.303 30579.6
19.3184 30523.7
19.3337 30484
19.349 30495.1
19.3643 30477
19.3796 30435.6
19.3949 30420.5
19.4102 30410.5
19.4256 30364.2
19.4409 30340.3
19.4562 30310.1
19.4715 30328.4
19.4868 30335.8
19.5021 30305.3
19.5175 30306.4
19.5328 30334
19.5481 30303.8
19.5634 30256.3
19.5787 30217.3
19.594 30199.7
19.6094 30200.2
19.6247 30200.2
19.64 30172.1
19.6553 30179
19.6706 30179.1
19.6859 30186.2
19.7013 30179.1
19.7166 30151.8
19.7319 30130.5
19.7472 30113.4
19.7625 30105.6
19.7778 30087.8
19.7932 30061.6
19.8085 30023.8
19.8238 30019.2
19.8391 30044.2
19.8544 30002.7
19.8697 29974
19.8851 30007.6
19.9004 30006.9
19.9157 29965.1
19.931 29953.7
19.9463 29977.8
19.9616 29956.1
19.977 29891
19.9923 29897.3
20.0076 29918.7
20.0229 29906.6
20.0382 29883.8
20.0535 29862.5
20.0689 29856.3
20.0842 29846.4
20.0995 29844.6
20.1148 29862.6
20.1301 29863.5
20.1454 29846.8
20.1608 29842.8
20.1761 29842.1
20.1914 29816.6
20.2067 29754
20.222 29714.7
20.2373 29772.1
20.2526 29815.8
20.268 29829.1
20.2833 29827.9
20.2986 29822.3
20.3139 29820.3
20.3292 29813.6
20.3445 29795.3
20.3599 29782.7
20.3752 29784
20.3905 29784.8
20.4058 29783.1
20.4211 29784
20.4364 29780.3
20.4518 29790
20.4671 29782.1
20.4824 29805.2
20.4977 29790
20.513 29768.5
20.5283 29814.6
20.5437 29837.1
20.559 29829.8
20.5743 29789.9
20.5896 29777.8
20.6049 29745.8
20.6202 29723.3
20.6356 29734.7
20.6509 29763.4
20.6662 29774.4
20.6815 29795.1
20.6968 29794.7
20.7121 29747.5
20.7275 29735.9
20.7428 29721.7
20.7581 29644.1
20.7734 29646
20.7887 29667.1
20.804 29672.7
20.8194 29723.5
20.8347 29765.7
20.85 29750.9
20.8653 29721.2
20.8806 29719.9
20.8959 29712.3
20.9113 29676.9
20.9266 29673.5
20.9419 29680.7
20.9572 29656.6
20.9725 29643.9
20.9878 29626.9
21.0031 29617.1
21.0185 29675.5
21.0338 29677
21.0491 29640
21.0644 29646.4
21.0797 29638.7
21.095 29638.2
21.1104 29663
21.1257 29654.1
21.141 29623.3
21.1563 29602.9
21.1716 29650.7
21.1869 29674.6
21.2023 29664.7
21.2176 29622.4
21.2329 29605.7
21.2482 29621
21.2635 29587.6
21.2788 29582.7
21.2942 29623.2
21.3095 29627.7
21.3248 29629.2
21.3401 29660
21.3554 29653.5
21.3707 29566.7
21.3861 29584.5
21.4014 29571.6
21.4167 29575.9
21.432 29592.1
21.4473 29577.6
21.4626 29532.4
21.478 29543.7
21.4933 29603.7
21.5086 29607.6
21.5239 29593.1
21.5392 29617
21.5545 29604.9
21.5699 29553.3
21.5852 29542.7
21.6005 29571.1
21.6158 29568.5
21.6311 29537.3
21.6464 29524.5
21.6618 29522.4
21.6771 29579.4
21.6924 29602.2
21.7077 29574.7
21.723 29572.3
21.7383 29597.9
21.7537 29592.7
21.769 29563.9
21.7843 29591.1
21.7996 29580.7
21.8149 29601.9
21.8302 29620.7
21.8455 29636.7
21.8609 29632.2
21.8762 29623
21.8915 29624.1
21.9068 29621.7
21.9221 29655.9
21.9374 29676.8
21.9528 29625.8
21.9681 29606.4
21.9834 29637.8
21.9987 29644.9
22.014 29629.2
22.0293 29670.8
22.0447 29749.8
22.06 29763.6
22.0753 29747.1
22.0906 29739.4
22.1059 29746.6
22.1212 29782.5
22.1366 29777.7
22.1519 29820.9
22.1672 29802.9
22.1825 29774.2
22.1978 29820.2
22.2131 29817.1
22.2285 29828.9
22.2438 29818
22.2591 29794.3
22.2744 29805.9
22.2897 29782.9
22.305 29837.8
22.3204 29897.2
22.3357 29868.9
22.351 29859
22.3663 29858.1
22.3816 29896.6
22.3969 29904.7
22.4123 29893.3
22.4276 29895.1
22.4429 29886
22.4582 29869.3
22.4735 29890.2
22.4888 29944.3
22.5042 29928.2
22.5195 29944.3
22.5348 29898.5
22.5501 29908.8
22.5654 29933.4
22.5807 29975.9
22.596 29980.9
22.6114 30010.4
22.6267 29962.3
22.642 29956.8
22.6573 29986.1
22.6726 29980.5
22.6879 29995.2
22.7033 29991.3
22.7186 29998.7
22.7339 29983.3
22.7492 29973.9
22.7645 30015.3
22.7798 30044.2
22.7952 30024.9
22.8105 30012.5
22.8258 30043.1
22.8411 30078.9
22.8564 30065.3
22.8717 30112.1
22.8871 30107.4
22.9024 30114.9
22.9177 30056.6
22.933 30027.6
22.9483 30062.5
22.9636 30141.3
22.979 30142.6
22.9943 30210.7
