# xPDFsuite Configuration #
[PDF]
wavelength = 0.1
dataformat = QA
inputfile = B3_Bronze-3nm_ss_18.chi
backgroundfile = B3_Li-bkg_ss.chi
mode = xray
bgscale = 0.98705
composition = Ti O2
outputtype = iq
qmaxinst = 23.0
qmin = 0.1
qmax = 23.0
rmax = 30.0
rmin = 0.0
rstep = 0.01
rpoly = 0.9

[Misc]
inputdir = E:/Beamtime/PETRA-III_September-2019/BeamData/processed/Run1/B3/chi/chi_w_sigmas/chi_scaled
savedir = E:/Beamtime/PETRA-III_September-2019/BeamData/processed/Run1/B3
backgroundfilefull = E:/Beamtime/PETRA-III_September-2019/BeamData/processed/Run1/B3/chi/chi_w_sigmas/chi_scaled/B3_Li-bkg_ss.chi

#### start data
#S 1
#L Q($\AA^{-1}$)  intensity(a.u.)
0.111649 0
0.126965 0
0.142282 0
0.157598 0
0.172914 0
0.188231 0
0.203547 0
0.218864 0
0.23418 0
0.249496 0
0.264813 0
0.280129 0
0.295445 0
0.310762 0
0.326078 0
0.341394 0
0.356711 0
0.372027 0
0.387343 0
0.40266 0
0.417976 0
0.433292 0
0.448609 0
0.463925 0
0.479241 0
0.494558 0
0.509874 0
0.525191 0
0.540507 0
0.555823 0
0.57114 0
0.586456 0
0.601772 0
0.617089 0
0.632405 0
0.647721 0
0.663038 0
0.678354 0
0.69367 0
0.708987 0
0.724303 0
0.739619 0
0.754936 0
0.770252 0
0.785568 0
0.800885 0
0.816201 0
0.831518 0
0.846834 0
0.86215 1.46601
0.877467 105254
0.892783 106382
0.908099 107694
0.923416 109605
0.938732 112494
0.954048 115031
0.969365 116671
0.984681 116936
0.999997 115447
1.01531 112521
1.03063 107193
1.04595 100734
1.06126 92884.5
1.07658 83846.5
1.0919 74945.4
1.10721 65108
1.12253 56347.9
1.13784 47678.3
1.15316 39980.8
1.16848 33268.5
1.18379 26999.1
1.19911 21923.4
1.21443 17414.7
1.22974 13767.5
1.24506 10853.5
1.26038 8471.24
1.27569 6829.1
1.29101 5823.66
1.30632 5346.05
1.32164 5516.74
1.33696 6045.77
1.35227 7000
1.36759 8303.76
1.38291 9764.21
1.39822 11521.2
1.41354 13189
1.42886 14762
1.44417 16282.2
1.45949 17750.3
1.4748 19386.7
1.49012 21278.8
1.50544 23696.3
1.52075 26832
1.53607 31008.9
1.55139 36656
1.5667 43235.7
1.58202 51791.6
1.59733 61028.4
1.61265 71231.8
1.62797 82014.3
1.64328 92194.5
1.6586 102296
1.67392 110646
1.68923 117596
1.70455 122557
1.71987 125820
1.73518 127621
1.7505 128281
1.76581 128724
1.78113 128670
1.79645 128679
1.81176 128369
1.82708 127785
1.8424 126647
1.85771 125359
1.87303 123531
1.88835 121522
1.90366 119147
1.91898 116572
1.93429 113834
1.94961 111189
1.96493 108893
1.98024 106863
1.99556 104891
2.01088 102865
2.02619 100307
2.04151 97252.2
2.05683 93405.3
2.07214 89182.6
2.08746 84818.1
2.10277 80427.4
2.11809 76499.6
2.13341 72800.8
2.14872 69637.6
2.16404 66979.6
2.17936 64749.8
2.19467 63051.6
2.20999 61629.5
2.22531 60540.8
2.24062 59537.1
2.25594 58639.2
2.27125 57763.3
2.28657 56819.4
2.30189 55966.7
2.3172 55088.9
2.33252 54318
2.34784 53522.2
2.36315 52900.8
2.37847 52441
2.39379 51969.8
2.4091 51845.4
2.42442 51608.2
2.43973 51798
2.45505 51940.6
2.47037 52008.9
2.48568 52085.5
2.501 52158.4
2.51632 52455.9
2.53163 52620.1
2.54695 52883.3
2.56226 53159.2
2.57758 53506.1
2.5929 53752.2
2.60821 53992.2
2.62353 54173.1
2.63885 54323.1
2.65416 54495.5
2.66948 54692.5
2.6848 55047.7
2.70011 55565
2.71543 56569.2
2.73074 57790.8
2.74606 59579.6
2.76138 61914.1
2.77669 64852.2
2.79201 68669.4
2.80733 73102.7
2.82264 78812.7
2.83796 85614.3
2.85328 93647
2.86859 103236
2.88391 113532
2.89922 125131
2.91454 136730
2.92986 148141
2.94517 158781
2.96049 167885
2.97581 175398
2.99112 180517
3.00644 183357
3.02176 183820
3.03707 182265
3.05239 178990
3.0677 174601
3.08302 169337
3.09834 163726
3.11365 157968
3.12897 152247
3.14429 146713
3.1596 141225
3.17492 136123
3.19024 130836
3.20555 125820
3.22087 120790
3.23618 115690
3.2515 110682
3.26682 105543
3.28213 100599
3.29745 95591.9
3.31277 91013.9
3.32808 86671.4
3.3434 82624.8
3.35872 79160.4
3.37403 76032.2
3.38935 73599.9
3.40466 71621
3.41998 70164.6
3.4353 69099.1
3.45061 68340.2
3.46593 67967.9
3.48125 67758.2
3.49656 67737.1
3.51188 67709
3.52719 67722.5
3.54251 67753.3
3.55783 67609.8
3.57314 67393.5
3.58846 66935.2
3.60378 66415.1
3.61909 65947.1
3.63441 65482.8
3.64973 65232
3.66504 65108.4
3.68036 65339.3
3.69567 65927.1
3.71099 66882.9
3.72631 68200.2
3.74162 69808.3
3.75694 71591.4
3.77226 73334.6
3.78757 74921.1
3.80289 76230.3
3.81821 77207.8
3.83352 77683.7
3.84884 77740.7
3.86415 77306
3.87947 76424.7
3.89479 75266.7
3.9101 73935.7
3.92542 72567.7
3.94074 71347
3.95605 70229.7
3.97137 69389.8
3.98669 68758.8
4.002 68496.8
4.01732 68449.1
4.03263 68699.4
4.04795 69151.5
4.06327 69955.7
4.07858 70971.4
4.0939 72338.3
4.10922 73925.1
4.12453 75789.2
4.13985 77907.9
4.15517 80052.2
4.17048 82229.2
4.1858 84201.1
4.20111 86003.6
4.21643 87592.5
4.23175 88918.2
4.24706 90048.3
4.26238 90884.6
4.2777 91664.7
4.29301 92235.7
4.30833 92636.6
4.32365 92835.6
4.33896 92802
4.35428 92445
4.36959 91598
4.38491 90254
4.40023 88423.3
4.41554 86052.9
4.43086 83251.7
4.44618 80096.4
4.46149 76609.1
4.47681 73141.4
4.49213 69733.7
4.50744 66625.6
4.52276 63837.4
4.53807 61377.6
4.55339 59344.2
4.56871 57604.1
4.58402 56193
4.59934 55042.6
4.61466 54214.2
4.62997 53663.4
4.64529 53335.6
4.6606 53179.3
4.67592 53246.8
4.69124 53466.3
4.70655 53862.1
4.72187 54348.6
4.73719 54926.9
4.7525 55599.3
4.76782 56307.6
4.78314 57063.9
4.79845 57788.6
4.81377 58510.8
4.82908 59204.7
4.8444 59881.1
4.85972 60549.8
4.87503 61246.5
4.89035 61928.2
4.90567 62641.9
4.92098 63431
4.9363 64349.7
4.95162 65431.9
4.96693 66668.7
4.98225 68215.9
4.99756 70207.9
5.01288 72440.8
5.0282 74751.6
5.04351 77122.9
5.05883 79040.7
5.07415 80580.2
5.08946 81591.1
5.10478 81847.7
5.1201 81694.9
5.13541 80906.7
5.15073 80009.3
5.16604 78874.6
5.18136 77773.3
5.19668 76811.3
5.21199 76116.5
5.22731 75584.2
5.24263 75224.4
5.25794 74802.3
5.27326 74321.3
5.28858 73749.1
5.30389 73115.8
5.31921 72580.4
5.33452 72073.4
5.34984 71747.8
5.36516 71385.9
5.38047 70908.2
5.39579 70116.8
5.41111 68979.6
5.42642 67389.4
5.44174 65458.6
5.45706 63120.7
5.47237 60572.9
5.48769 57879.9
5.503 55303.3
5.51832 53054.6
5.53364 51161.2
5.54895 49814.9
5.56427 48895.5
5.57959 48306.2
5.5949 48008.3
5.61022 47812.6
5.62553 47716.8
5.64085 47587
5.65617 47470.4
5.67148 47360.3
5.6868 47234.3
5.70212 47077.7
5.71743 46899.7
5.73275 46803.1
5.74807 46767.7
5.76338 46849.2
5.7787 47038.1
5.79401 47328
5.80933 47805.3
5.82465 48350
5.83996 49007.6
5.85528 49717.9
5.8706 50507.2
5.88591 51316.3
5.90123 52111.3
5.91655 52814
5.93186 53413.2
5.94718 53829.3
5.96249 54060.6
5.97781 54099.4
5.99313 53908.5
6.00844 53534.5
6.02376 52989.7
6.03908 52332.4
6.05439 51610.5
6.06971 50884.9
6.08503 50202.1
6.10034 49568.5
6.11566 49045
6.13097 48601.8
6.14629 48260.3
6.16161 48022.3
6.17692 47877.2
6.19224 47842.9
6.20756 47886.7
6.22287 48087.4
6.23819 48398.9
6.25351 48801.5
6.26882 49226.3
6.28414 49559.2
6.29945 49796.8
6.31477 49883
6.33009 49846.9
6.3454 49708.6
6.36072 49471.6
6.37604 49180
6.39135 48856.4
6.40667 48580
6.42199 48396.8
6.4373 48322.8
6.45262 48333.1
6.46793 48453.6
6.48325 48670.8
6.49857 48981.1
6.51388 49374.5
6.5292 49814.1
6.54452 50311.5
6.55983 50812.4
6.57515 51364.2
6.59046 51918.3
6.60578 52512.2
6.6211 53080.4
6.63641 53666
6.65173 54170.1
6.66705 54604.8
6.68236 54971
6.69768 55240
6.713 55438.6
6.72831 55508.6
6.74363 55460.5
6.75894 55314.1
6.77426 55078.8
6.78958 54788
6.80489 54432.9
6.82021 54090.8
6.83553 53688.6
6.85084 53240.1
6.86616 52751
6.88148 52253.7
6.89679 51798
6.91211 51387.5
6.92742 51000.6
6.94274 50635.4
6.95806 50304.7
6.97337 50017.3
6.98869 49754.6
7.00401 49519.6
7.01932 49265
7.03464 49024.1
7.04996 48847.9
7.06527 48737.9
7.08059 48669.8
7.0959 48600.9
7.11122 48517.8
7.12654 48445.1
7.14185 48378.1
7.15717 48357.1
7.17249 48364.3
7.1878 48365.4
7.20312 48408
7.21844 48479
7.23375 48544.4
7.24907 48613.6
7.26438 48721.7
7.2797 48820.1
7.29502 48928.9
7.31033 48988.4
7.32565 49014.4
7.34097 48990.3
7.35628 48912.9
7.3716 48758.7
7.38692 48541.5
7.40223 48307.8
7.41755 48048.4
7.43286 47781.9
7.44818 47479.7
7.4635 47194.8
7.47881 46919.8
7.49413 46662.5
7.50945 46409.3
7.52476 46197.5
7.54008 45988.5
7.55539 45755.1
7.57071 45497
7.58603 45178.1
7.60134 44870.1
7.61666 44559.3
7.63198 44255.5
7.64729 43945.7
7.66261 43678.4
7.67793 43490.6
7.69324 43386.4
7.70856 43353.5
7.72387 43449.9
7.73919 43634.5
7.75451 43882.2
7.76982 44134.9
7.78514 44335
7.80046 44513.5
7.81577 44599.1
7.83109 44563.2
7.84641 44410.9
7.86172 44143.5
7.87704 43769.1
7.89235 43337.1
7.90767 42915.7
7.92299 42533.1
7.9383 42220.5
7.95362 41976
7.96894 41812.9
7.98425 41672.7
7.99957 41603.8
8.01489 41579.7
8.0302 41556.7
8.04552 41520.8
8.06083 41488.5
8.07615 41465.7
8.09147 41438.7
8.10678 41405.6
8.1221 41353.1
8.13742 41327.2
8.15273 41314.8
8.16805 41343
8.18337 41357.4
8.19868 41380.9
8.214 41407.6
8.22931 41448.4
8.24463 41478.6
8.25995 41427.9
8.27526 41341.1
8.29058 41211.2
8.3059 41075.6
8.32121 40894.6
8.33653 40717.8
8.35185 40540.7
8.36716 40370.7
8.38248 40235.6
8.39779 40146.7
8.41311 40087.4
8.42843 40059
8.44374 40068.8
8.45906 40083.4
8.47438 40122.2
8.48969 40173.9
8.50501 40304.9
8.52032 40463
8.53564 40632.1
8.55096 40811
8.56627 40966.6
8.58159 41129.9
8.59691 41301.3
8.61222 41525.7
8.62754 41717.6
8.64286 41912.1
8.65817 42086.3
8.67349 42250.2
8.6888 42378.4
8.70412 42510.6
8.71944 42688.6
8.73475 42949.3
8.75007 43281.9
8.76539 43679.8
8.7807 44107.2
8.79602 44488
8.81134 44800.7
8.82665 44996.1
8.84197 45060.5
8.85728 44984.8
8.8726 44821.9
8.88792 44631.8
8.90323 44495.4
8.91855 44460
8.93387 44541
8.94918 44750.8
8.9645 44991.5
8.97982 45225.5
8.99513 45375
9.01045 45439.4
9.02576 45309.7
9.04108 45030
9.0564 44603.7
9.07171 44068.2
9.08703 43459
9.10235 42820.6
9.11766 42228.3
9.13298 41706.9
9.1483 41299.5
9.16361 40978.7
9.17893 40741.5
9.19424 40523.3
9.20956 40336
9.22488 40142.5
9.24019 39965.1
9.25551 39782.7
9.27083 39624.9
9.28614 39440.7
9.30146 39272.9
9.31678 39099.3
9.33209 38926.9
9.34741 38760.7
9.36272 38618.6
9.37804 38484.6
9.39336 38381.9
9.40867 38285.8
9.42399 38216.4
9.43931 38215.4
9.45462 38249.6
9.46994 38320.3
9.48525 38416.1
9.50057 38574.7
9.51589 38780.6
9.5312 38987.4
9.54652 39143.4
9.56184 39256.5
9.57715 39296.3
9.59247 39235.4
9.60779 39118.4
9.6231 38960.1
9.63842 38785.4
9.65373 38588
9.66905 38429.8
9.68437 38310.3
9.69968 38244.4
9.715 38201.9
9.73032 38191.3
9.74563 38176.3
9.76095 38190.8
9.77627 38229
9.79158 38286.3
9.8069 38356.2
9.82221 38426.2
9.83753 38479.9
9.85285 38523.7
9.86816 38567.3
9.88348 38609.4
9.8988 38655
9.91411 38699.8
9.92943 38793.7
9.94475 38914.8
9.96006 39057.6
9.97538 39187.6
9.99069 39332.7
10.006 39441.1
10.0213 39571.9
10.0366 39709
10.052 39861.7
10.0673 40020.9
10.0826 40184.2
10.0979 40381.6
10.1132 40554.9
10.1285 40764.8
10.1439 41005.5
10.1592 41268.1
10.1745 41451.9
10.1898 41560.8
10.2051 41570.5
10.2204 41527.8
10.2358 41449.4
10.2511 41400.8
10.2664 41369.9
10.2817 41415.3
10.297 41520.4
10.3123 41715.6
10.3277 41902.7
10.343 42023.9
10.3583 42032.8
10.3736 41950.8
10.3889 41798.6
10.4042 41581
10.4196 41315.5
10.4349 41045.1
10.4502 40777.3
10.4655 40566.8
10.4808 40403.4
10.4961 40269.2
10.5115 40176.6
10.5268 40125.8
10.5421 40113.8
10.5574 40136.7
10.5727 40192.1
10.588 40251.5
10.6033 40287.8
10.6187 40283.7
10.634 40228.7
10.6493 40131.7
10.6646 39982.4
10.6799 39788.3
10.6952 39576.7
10.7106 39363.2
10.7259 39184.7
10.7412 39024.2
10.7565 38918.5
10.7718 38881.5
10.7871 38863
10.8025 38853.5
10.8178 38865.8
10.8331 38871.9
10.8484 38832.5
10.8637 38702.4
10.879 38532.8
10.8944 38328.5
10.9097 38088.1
10.925 37838.3
10.9403 37581.4
10.9556 37362.2
10.9709 37186
10.9863 37025.7
11.0016 36865.2
11.0169 36716.9
11.0322 36585.5
11.0475 36443.9
11.0628 36298
11.0782 36158
11.0935 36018.4
11.1088 35904.1
11.1241 35802.2
11.1394 35714.6
11.1547 35655.4
11.1701 35601.4
11.1854 35540.5
11.2007 35462.8
11.216 35370.7
11.2313 35316.5
11.2466 35246.8
11.262 35185.7
11.2773 35153.4
11.2926 35148.2
11.3079 35164.6
11.3232 35144.9
11.3385 35086.5
11.3538 35029.2
11.3692 34982.3
11.3845 34966.9
11.3998 34952.9
11.4151 34903.4
11.4304 34887.9
11.4457 34846.7
11.4611 34851.6
11.4764 34873.9
11.4917 34936.8
11.507 34995.8
11.5223 35053.7
11.5376 35082.8
11.553 35106.7
11.5683 35133.4
11.5836 35152.7
11.5989 35141.4
11.6142 35105.3
11.6295 35059.6
11.6449 34991.3
11.6602 34898.1
11.6755 34790.2
11.6908 34700.8
11.7061 34634.3
11.7214 34589
11.7368 34572.2
11.7521 34562.5
11.7674 34601.7
11.7827 34640.4
11.798 34652.4
11.8133 34609.3
11.8287 34532.9
11.844 34473.6
11.8593 34421.1
11.8746 34367.1
11.8899 34317.1
11.9052 34269.8
11.9206 34206.6
11.9359 34176.4
11.9512 34172.6
11.9665 34161.2
11.9818 34152
11.9971 34142.8
12.0125 34127.1
12.0278 34086.2
12.0431 34052.5
12.0584 34029.9
12.0737 34012.8
12.089 33958.3
12.1044 33892.4
12.1197 33841.4
12.135 33813.4
12.1503 33801.5
12.1656 33757
12.1809 33742.5
12.1962 33715.8
12.2116 33685.7
12.2269 33682.7
12.2422 33691.4
12.2575 33721.3
12.2728 33713.5
12.2881 33706.5
12.3035 33701.6
12.3188 33708.4
12.3341 33736.2
12.3494 33776.4
12.3647 33802.2
12.38 33796.3
12.3954 33799.2
12.4107 33831.7
12.426 33874.1
12.4413 33888.6
12.4566 33892.1
12.4719 33902.6
12.4873 33893.3
12.5026 33885.9
12.5179 33875.4
12.5332 33866.2
12.5485 33865.7
12.5638 33877.5
12.5792 33885
12.5945 33896.5
12.6098 33900.6
12.6251 33928.9
12.6404 33937.8
12.6557 33938.5
12.6711 33957.2
12.6864 33969.6
12.7017 33953.9
12.717 33934.3
12.7323 33922.9
12.7476 33931.9
12.763 33954.1
12.7783 33998.2
12.7936 34052
12.8089 34115.6
12.8242 34167.2
12.8395 34199.1
12.8549 34230.1
12.8702 34192.9
12.8855 34105.3
12.9008 34028.6
12.9161 33966.7
12.9314 33891
12.9467 33807.7
12.9621 33753.4
12.9774 33704.2
12.9927 33681
13.008 33666.1
13.0233 33648.6
13.0386 33660.1
13.054 33686
13.0693 33695.3
13.0846 33684.1
13.0999 33691.8
13.1152 33705.4
13.1305 33715.8
13.1459 33718.1
13.1612 33717.6
13.1765 33709.7
13.1918 33709.7
13.2071 33720.3
13.2224 33717.3
13.2378 33708.8
13.2531 33703.8
13.2684 33738.5
13.2837 33739.4
13.299 33732.2
13.3143 33754.4
13.3297 33755.7
13.345 33754.6
13.3603 33803.8
13.3756 33894.9
13.3909 34003.5
13.4062 34121.1
13.4216 34271.5
13.4369 34461.9
13.4522 34626
13.4675 34778.3
13.4828 34892.5
13.4981 34974.7
13.5135 35023.1
13.5288 35042
13.5441 35053.6
13.5594 35098.1
13.5747 35157.5
13.59 35182.7
13.6054 35151.7
13.6207 35059.5
13.636 34927.1
13.6513 34760.7
13.6666 34566.6
13.6819 34361.4
13.6973 34161.4
13.7126 33981.7
13.7279 33840
13.7432 33724.6
13.7585 33634.2
13.7738 33549.5
13.7891 33470.7
13.8045 33399.1
13.8198 33336.2
13.8351 33300.6
13.8504 33283.3
13.8657 33274.7
13.881 33268.6
13.8964 33281.5
13.9117 33317.1
13.927 33345.3
13.9423 33367.8
13.9576 33389.8
13.9729 33375.9
13.9883 33316.1
14.0036 33221.4
14.0189 33162.7
14.0342 33084.8
14.0495 32996.5
14.0648 32880.5
14.0802 32755.2
14.0955 32650.9
14.1108 32550.1
14.1261 32432
14.1414 32363.9
14.1567 32294.3
14.1721 32223.5
14.1874 32181.7
14.2027 32129.1
14.218 32079.1
14.2333 32076
14.2486 32072.7
14.264 32049.1
14.2793 32032.4
14.2946 32004.3
14.3099 31954.7
14.3252 31900.3
14.3405 31870.5
14.3559 31860.1
14.3712 31852.4
14.3865 31828.7
14.4018 31804.3
14.4171 31792.6
14.4324 31748.7
14.4478 31687.1
14.4631 31646.2
14.4784 31655.3
14.4937 31660.7
14.509 31667.1
14.5243 31678.3
14.5397 31674.3
14.555 31685.2
14.5703 31711.3
14.5856 31713.4
14.6009 31704.6
14.6162 31687.1
14.6315 31623.7
14.6469 31573.3
14.6622 31562.3
14.6775 31543.4
14.6928 31489.8
14.7081 31414
14.7234 31380.9
14.7388 31358.9
14.7541 31328.4
14.7694 31291.6
14.7847 31246.4
14.8 31181.5
14.8153 31122.7
14.8307 31075.4
14.846 31062.7
14.8613 31055
14.8766 31027
14.8919 31014.1
14.9072 30990.8
14.9226 30956.8
14.9379 30928.8
14.9532 30908.4
14.9685 30912.2
14.9838 30916.2
14.9991 30912.1
15.0145 30886.2
15.0298 30879.8
15.0451 30866.1
15.0604 30864.1
15.0757 30872.9
15.091 30842.2
15.1064 30842.8
15.1217 30861
15.137 30844.6
15.1523 30831.7
15.1676 30878.3
15.1829 30937.8
15.1983 30984.7
15.2136 31004.7
15.2289 31012.2
15.2442 31039.6
15.2595 31066.7
15.2748 31064
15.2902 31078.1
15.3055 31104.2
15.3208 31120.3
15.3361 31133.4
15.3514 31175.6
15.3667 31200.7
15.382 31203
15.3974 31215.2
15.4127 31238.2
15.428 31219.8
15.4433 31161.3
15.4586 31092.9
15.4739 31036.4
15.4893 30981.7
15.5046 30951.4
15.5199 30942.8
15.5352 30914.8
15.5505 30870
15.5658 30843.6
15.5812 30814.6
15.5965 30814
15.6118 30813.6
15.6271 30805.2
15.6424 30779.3
15.6577 30742.3
15.6731 30725
15.6884 30730.3
15.7037 30729
15.719 30692.3
15.7343 30656.2
15.7496 30630
15.765 30578.8
15.7803 30558.1
15.7956 30554.4
15.8109 30535.3
15.8262 30521.7
15.8415 30495.2
15.8569 30444.8
15.8722 30383.8
15.8875 30321.5
15.9028 30265.1
15.9181 30237.3
15.9334 30197.2
15.9488 30142.4
15.9641 30085.8
15.9794 30074.8
15.9947 30077.6
16.01 30050.5
16.0253 30017.4
16.0407 29995.9
16.056 29990.1
16.0713 29968.7
16.0866 29936.9
16.1019 29932.5
16.1172 29947.8
16.1326 29965.7
16.1479 29968.1
16.1632 29972
16.1785 29956.8
16.1938 29942.3
16.2091 29960.5
16.2244 29961.6
16.2398 29949.7
16.2551 29951.2
16.2704 29971.4
16.2857 29977.6
16.301 29960
16.3163 29934.7
16.3317 29925.7
16.347 29932.8
16.3623 29920
16.3776 29895.4
16.3929 29871
16.4082 29878.7
16.4236 29885.8
16.4389 29808.4
16.4542 29755.3
16.4695 29709.3
16.4848 29690.7
16.5001 29677.8
16.5155 29669.8
16.5308 29641.9
16.5461 29608.5
16.5614 29583.7
16.5767 29553.4
16.592 29492.6
16.6074 29424.5
16.6227 29411.6
16.638 29399.9
16.6533 29372.3
16.6686 29345.2
16.6839 29300.3
16.6993 29264.4
16.7146 29222.8
16.7299 29207.6
16.7452 29201.1
16.7605 29202.2
16.7758 29190
16.7912 29160.8
16.8065 29146.1
16.8218 29131.4
16.8371 29129.1
16.8524 29110.1
16.8677 29097.1
16.8831 29067.3
16.8984 29040.7
16.9137 29014.8
16.929 28986.2
16.9443 28972.2
16.9596 28979.6
16.9749 28996.4
16.9903 28970.1
17.0056 28921.7
17.0209 28874.6
17.0362 28836.3
17.0515 28821.4
17.0668 28802.7
17.0822 28806.3
17.0975 28799.9
17.1128 28775.3
17.1281 28745
17.1434 28715
17.1587 28705.9
17.1741 28717.8
17.1894 28711.6
17.2047 28708.1
17.22 28661
17.2353 28618.3
17.2506 28587.1
17.266 28540
17.2813 28534.6
17.2966 28528.3
17.3119 28513
17.3272 28476.3
17.3425 28467.5
17.3579 28470.3
17.3732 28442.3
17.3885 28438.9
17.4038 28457.2
17.4191 28447
17.4344 28403.5
17.4498 28388.4
17.4651 28394.4
17.4804 28400.7
17.4957 28394.2
17.511 28375.1
17.5263 28369.3
17.5417 28359.8
17.557 28366.2
17.5723 28373.4
17.5876 28368.5
17.6029 28396.6
17.6182 28425.2
17.6336 28415.1
17.6489 28419.7
17.6642 28429.5
17.6795 28432.7
17.6948 28445.3
17.7101 28423.8
17.7255 28409.7
17.7408 28400.4
17.7561 28383.6
17.7714 28374.4
17.7867 28378.2
17.802 28380
17.8173 28362.9
17.8327 28332.4
17.848 28311.9
17.8633 28319.8
17.8786 28306.3
17.8939 28273.4
17.9092 28275.3
17.9246 28287.5
17.9399 28283.3
17.9552 28262.4
17.9705 28246.3
17.9858 28231.4
18.0011 28216.2
18.0165 28209.8
18.0318 28189.6
18.0471 28163.5
18.0624 28163.1
18.0777 28170.1
18.093 28196
18.1084 28215.5
18.1237 28219.8
18.139 28179
18.1543 28152.8
18.1696 28186.8
18.1849 28172.7
18.2003 28145.9
18.2156 28144.2
18.2309 28130.9
18.2462 28113.3
18.2615 28111.3
18.2768 28121.5
18.2922 28135.4
18.3075 28200.2
18.3228 28223.3
18.3381 28231.7
18.3534 28249.3
18.3687 28256.8
18.3841 28263.9
18.3994 28275.5
18.4147 28268.6
18.43 28275.2
18.4453 28247.3
18.4606 28221.6
18.476 28247.3
18.4913 28236.1
18.5066 28202.9
18.5219 28188.5
18.5372 28135
18.5525 28082.1
18.5679 28020.9
18.5832 27988
18.5985 27991.1
18.6138 27966
18.6291 27963.3
18.6444 27954
18.6597 27913.9
18.6751 27884.2
18.6904 27896.3
18.7057 27871
18.721 27853.7
18.7363 27847.6
18.7516 27843.5
18.767 27843.1
18.7823 27794.7
18.7976 27720.9
18.8129 27717.6
18.8282 27716
18.8435 27687
18.8589 27666.5
18.8742 27627.1
18.8895 27571.1
18.9048 27557
18.9201 27536.2
18.9354 27519.6
18.9508 27541.8
18.9661 27525
18.9814 27487.5
18.9967 27456.7
19.012 27388.7
19.0273 27361.6
19.0427 27366.2
19.058 27361.8
19.0733 27352.7
19.0886 27339.1
19.1039 27347.9
19.1192 27308.9
19.1346 27296.2
19.1499 27292.5
19.1652 27292.5
19.1805 27280.9
19.1958 27278.7
19.2111 27243.7
19.2265 27234
19.2418 27237.5
19.2571 27217.4
19.2724 27203
19.2877 27191.3
19.303 27157.2
19.3184 27121.1
19.3337 27077.2
19.349 27066.2
19.3643 27043.8
19.3796 27009.4
19.3949 27007.4
19.4102 27015.4
19.4256 27010.3
19.4409 26998.8
19.4562 26950.6
19.4715 26926.5
19.4868 26920.2
19.5021 26908.9
19.5175 26901.7
19.5328 26908.3
19.5481 26871.6
19.5634 26848.4
19.5787 26852.1
19.594 26814.9
19.6094 26791
19.6247 26760.4
19.64 26717.8
19.6553 26760.2
19.6706 26797
19.6859 26777.7
19.7013 26764.4
19.7166 26747.9
19.7319 26714.4
19.7472 26700.6
19.7625 26686.5
19.7778 26684.5
19.7932 26675.4
19.8085 26630.3
19.8238 26613.6
19.8391 26607.1
19.8544 26587.3
19.8697 26572.9
19.8851 26594.6
19.9004 26595.9
19.9157 26571.9
19.931 26578.5
19.9463 26591.2
19.9616 26542.3
19.977 26499.6
19.9923 26517.8
20.0076 26536.4
20.0229 26519.4
20.0382 26516.6
20.0535 26498.8
20.0689 26475.9
20.0842 26501.3
20.0995 26483.4
20.1148 26472.5
20.1301 26450.6
20.1454 26440.7
20.1608 26483.9
20.1761 26505
20.1914 26477.1
20.2067 26409
20.222 26380.4
20.2373 26402.8
20.2526 26436.8
20.268 26427.4
20.2833 26413.9
20.2986 26432.8
20.3139 26407.6
20.3292 26395.9
20.3445 26373.4
20.3599 26372.5
20.3752 26354.2
20.3905 26373.9
20.4058 26395.3
20.4211 26379.4
20.4364 26390.3
20.4518 26386.5
20.4671 26360.8
20.4824 26362.9
20.4977 26352.9
20.513 26343.4
20.5283 26373.9
20.5437 26387.5
20.559 26375.6
20.5743 26335.1
20.5896 26305.1
20.6049 26321.9
20.6202 26314.9
20.6356 26273
20.6509 26283.1
20.6662 26276.7
20.6815 26267.5
20.6968 26269.6
20.7121 26229.1
20.7275 26209
20.7428 26222.5
20.7581 26228.9
20.7734 26224.2
20.7887 26202.7
20.804 26212.2
20.8194 26213.6
20.8347 26233.5
20.85 26230.5
20.8653 26196.9
20.8806 26193.5
20.8959 26170.6
20.9113 26161
20.9266 26193.6
20.9419 26206.4
20.9572 26181.8
20.9725 26158.2
20.9878 26136.1
21.0031 26133.9
21.0185 26194.8
21.0338 26185.6
21.0491 26146.2
21.0644 26134.1
21.0797 26106.7
21.095 26123.9
21.1104 26160
21.1257 26156.6
21.141 26160.7
21.1563 26146.6
21.1716 26153.7
21.1869 26170
21.2023 26182.1
21.2176 26138.2
21.2329 26108.9
21.2482 26142.7
21.2635 26139.8
21.2788 26124.5
21.2942 26150.8
21.3095 26111.2
21.3248 26095.9
21.3401 26135.7
21.3554 26170.1
21.3707 26151.5
21.3861 26152.7
21.4014 26081.8
21.4167 26055.5
21.432 26116
21.4473 26104.8
21.4626 26051.1
21.478 26020
21.4933 26055.4
21.5086 26053.4
21.5239 26042.4
21.5392 26079.2
21.5545 26073.6
21.5699 26060.8
21.5852 26031.7
21.6005 26062.8
21.6158 26044.7
21.6311 26016.1
21.6464 26023.1
21.6618 25996.2
21.6771 26014.1
21.6924 26050.1
21.7077 26020.9
21.723 26021.7
21.7383 26060.9
21.7537 26088.5
21.769 26059.6
21.7843 26061.2
21.7996 26053.5
21.8149 26053.3
21.8302 26036.6
21.8455 26038.2
21.8609 26022.7
21.8762 26034.3
21.8915 26060.9
21.9068 26057.6
21.9221 26069.1
21.9374 26105
21.9528 26108.1
21.9681 26070.1
21.9834 26075.7
21.9987 26127.3
22.014 26083.8
22.0293 26119.8
22.0447 26160.1
22.06 26196.7
22.0753 26207.6
22.0906 26185.6
22.1059 26163.7
22.1212 26191.2
22.1366 26175.1
22.1519 26199.8
22.1672 26150.6
22.1825 26155.7
22.1978 26222.6
22.2131 26239.5
22.2285 26218
22.2438 26181.9
22.2591 26146.8
22.2744 26157.7
22.2897 26166.6
22.305 26191.8
22.3204 26241.4
22.3357 26283.2
22.351 26288.8
22.3663 26251.8
22.3816 26265.5
22.3969 26277.6
22.4123 26240
22.4276 26198.5
22.4429 26207.4
22.4582 26236.4
22.4735 26256.5
22.4888 26256.3
22.5042 26252.6
22.5195 26235.2
22.5348 26228.6
22.5501 26264.5
22.5654 26269.3
22.5807 26281.9
22.596 26257.6
22.6114 26304.6
22.6267 26261
22.642 26267.2
22.6573 26254.8
22.6726 26255.1
22.6879 26286
22.7033 26261
22.7186 26232.6
22.7339 26225
22.7492 26185.9
22.7645 26245.8
22.7798 26268.9
22.7952 26297.9
22.8105 26319.7
22.8258 26307.6
22.8411 26266.7
22.8564 26273.3
22.8717 26284.8
22.8871 26232.6
22.9024 26283.9
22.9177 26284.5
22.933 26299.6
22.9483 26306.4
22.9636 26359.7
22.979 26348.8
22.9943 26342.9
