# xPDFsuite Configuration #
[PDF]
wavelength = 0.1
dataformat = QA
inputfile = B3_Bronze-3nm_ss_20.chi
backgroundfile = B3_Li-bkg_ss.chi
mode = xray
bgscale = 0.98705
composition = Ti O2
outputtype = iq
qmaxinst = 23.0
qmin = 0.1
qmax = 23.0
rmax = 30.0
rmin = 0.0
rstep = 0.01
rpoly = 0.9

[Misc]
inputdir = E:/Beamtime/PETRA-III_September-2019/BeamData/processed/Run1/B3/chi/chi_w_sigmas/chi_scaled
savedir = E:/Beamtime/PETRA-III_September-2019/BeamData/processed/Run1/B3
backgroundfilefull = E:/Beamtime/PETRA-III_September-2019/BeamData/processed/Run1/B3/chi/chi_w_sigmas/chi_scaled/B3_Li-bkg_ss.chi

#### start data
#S 1
#L Q($\AA^{-1}$)  intensity(a.u.)
0.111649 0
0.126965 0
0.142282 0
0.157598 0
0.172914 0
0.188231 0
0.203547 0
0.218864 0
0.23418 0
0.249496 0
0.264813 0
0.280129 0
0.295445 0
0.310762 0
0.326078 0
0.341394 0
0.356711 0
0.372027 0
0.387343 0
0.40266 0
0.417976 0
0.433292 0
0.448609 0
0.463925 0
0.479241 0
0.494558 0
0.509874 0
0.525191 0
0.540507 0
0.555823 0
0.57114 0
0.586456 0
0.601772 0
0.617089 0
0.632405 0
0.647721 0
0.663038 0
0.678354 0
0.69367 0
0.708987 0
0.724303 0
0.739619 0
0.754936 0
0.770252 0
0.785568 0
0.800885 0
0.816201 0
0.831518 0
0.846834 0
0.86215 1.6176
0.877467 116138
0.892783 116579
0.908099 117578
0.923416 119298
0.938732 121756
0.954048 124028
0.969365 125255
0.984681 125104
0.999997 123086
1.01531 119701
1.03063 113971
1.04595 106980
1.06126 98570.2
1.07658 88866.1
1.0919 79308.5
1.10721 68744.2
1.12253 59290.3
1.13784 49962.6
1.15316 41619.6
1.16848 34356.6
1.18379 27601.3
1.19911 22142
1.21443 17163.5
1.22974 13069.6
1.24506 9819.04
1.26038 7239.18
1.27569 5480.69
1.29101 4246.59
1.30632 3633.15
1.32164 3686.94
1.33696 4300.53
1.35227 5391.95
1.36759 6936.81
1.38291 8599.72
1.39822 10588.9
1.41354 12516.4
1.42886 14306.1
1.44417 16046.7
1.45949 17811.9
1.4748 19800.4
1.49012 22167.7
1.50544 25231.5
1.52075 29119.2
1.53607 34088.1
1.55139 40696.8
1.5667 48248.6
1.58202 57835.9
1.59733 68065.8
1.61265 79214.9
1.62797 90751.2
1.64328 101682
1.6586 112250
1.67392 121063
1.68923 128331
1.70455 133653
1.71987 137224
1.73518 139400
1.7505 140475
1.76581 141309
1.78113 141661
1.79645 142024
1.81176 142124
1.82708 141913
1.8424 141065
1.85771 139769
1.87303 137713
1.88835 135169
1.90366 132086
1.91898 128585
1.93429 124952
1.94961 121309
1.96493 118030
1.98024 115082
1.99556 112144
2.01088 109324
2.02619 106003
2.04151 102339
2.05683 97952.2
2.07214 93335.8
2.08746 88680.8
2.10277 84015.7
2.11809 79904.7
2.13341 76022.8
2.14872 72796.7
2.16404 69952.2
2.17936 67574.8
2.19467 65662.2
2.20999 64011.3
2.22531 62734.7
2.24062 61544.8
2.25594 60450.8
2.27125 59365
2.28657 58294.2
2.30189 57331.4
2.3172 56364.9
2.33252 55498.2
2.34784 54646.3
2.36315 54064
2.37847 53603.3
2.39379 53183.2
2.4091 53073.6
2.42442 52974.1
2.43973 53150.3
2.45505 53296.3
2.47037 53400
2.48568 53518.5
2.501 53693.6
2.51632 53956.5
2.53163 54140.5
2.54695 54481.6
2.56226 54845.4
2.57758 55293.6
2.5929 55651.9
2.60821 55989.8
2.62353 56154.9
2.63885 56232.3
2.65416 56372.8
2.66948 56556.3
2.6848 57013.7
2.70011 57573.3
2.71543 58641.5
2.73074 59952.3
2.74606 61863.7
2.76138 64366.4
2.77669 67555.6
2.79201 71737.9
2.80733 76621.8
2.82264 82887.6
2.83796 90414.3
2.85328 99273.1
2.86859 109862
2.88391 121318
2.89922 134327
2.91454 147528
2.92986 160648
2.94517 173029
2.96049 183745
2.97581 192789
2.99112 199281
3.00644 203393
3.02176 204843
3.03707 203940
3.05239 200968
3.0677 196469
3.08302 190596
3.09834 184021
3.11365 176998
3.12897 169898
3.14429 162808
3.1596 155649
3.17492 148801
3.19024 141724
3.20555 135082
3.22087 128620
3.23618 122298
3.2515 116269
3.26682 110368
3.28213 104903
3.29745 99600.7
3.31277 94793.5
3.32808 90314.3
3.3434 86173.5
3.35872 82687.4
3.37403 79566.1
3.38935 77137.8
3.40466 75171.4
3.41998 73676.6
3.4353 72581.9
3.45061 71824.1
3.46593 71480.5
3.48125 71309.7
3.49656 71284.9
3.51188 71241.8
3.52719 71257.3
3.54251 71286.5
3.55783 71125.5
3.57314 70840
3.58846 70365.1
3.60378 69851.6
3.61909 69363
3.63441 68872.5
3.64973 68643.3
3.66504 68509
3.68036 68726.8
3.69567 69274.2
3.71099 70114.6
3.72631 71248.2
3.74162 72597.4
3.75694 74081.6
3.77226 75520.9
3.78757 76775.5
3.80289 77816.6
3.81821 78495.5
3.83352 78761.6
3.84884 78626.5
3.86415 78122.3
3.87947 77278.5
3.89479 76222.2
3.9101 75014.2
3.92542 73781.1
3.94074 72658
3.95605 71679.9
3.97137 71007.1
3.98669 70538.9
4.002 70380.5
4.01732 70448.4
4.03263 70768.1
4.04795 71312
4.06327 72245.2
4.07858 73472.2
4.0939 75073.2
4.10922 76931.5
4.12453 79137.8
4.13985 81674.7
4.15517 84304.8
4.17048 87016.8
4.1858 89578.7
4.20111 92008.9
4.21643 94283
4.23175 96244.7
4.24706 97956.2
4.26238 99247
4.2777 100335
4.29301 101019
4.30833 101340
4.32365 101251
4.33896 100684
4.35428 99616.7
4.36959 97979
4.38491 95826.1
4.40023 93206.9
4.41554 90091.6
4.43086 86625
4.44618 82962.3
4.46149 79096.4
4.47681 75402.2
4.49213 71858.5
4.50744 68706.7
4.52276 65922.1
4.53807 63484
4.55339 61499.3
4.56871 59842.4
4.58402 58535.7
4.59934 57495.1
4.61466 56713.5
4.62997 56248.8
4.64529 55972.4
4.6606 55919.1
4.67592 56042.6
4.69124 56347.8
4.70655 56802.7
4.72187 57365.1
4.73719 57995.2
4.7525 58668.8
4.76782 59323
4.78314 60023
4.79845 60643.2
4.81377 61256.5
4.82908 61858
4.8444 62497.2
4.85972 63137.7
4.87503 63826.6
4.89035 64541.5
4.90567 65365.9
4.92098 66283.4
4.9363 67373.5
4.95162 68626.9
4.96693 70090.4
4.98225 71883.6
4.99756 74171.2
5.01288 76739.3
5.0282 79423.8
5.04351 82187.5
5.05883 84533.7
5.07415 86502.7
5.08946 87912.3
5.10478 88607.1
5.1201 88874.1
5.13541 88498
5.15073 87929.5
5.16604 87105.8
5.18136 86278.8
5.19668 85513.6
5.21199 84905.2
5.22731 84356.3
5.24263 83893.8
5.25794 83271
5.27326 82498.1
5.28858 81515.9
5.30389 80491.6
5.31921 79543.1
5.33452 78731.6
5.34984 78064
5.36516 77422.7
5.38047 76733.9
5.39579 75741.6
5.41111 74481.9
5.42642 72773.1
5.44174 70775.6
5.45706 68301.4
5.47237 65626.2
5.48769 62816.3
5.503 60134.8
5.51832 57816
5.53364 55827.7
5.54895 54367
5.56427 53313.8
5.57959 52602.9
5.5949 52221.5
5.61022 51931.6
5.62553 51762.1
5.64085 51558.9
5.65617 51360.3
5.67148 51185.1
5.6868 51004.4
5.70212 50776.3
5.71743 50542.9
5.73275 50414.1
5.74807 50345.3
5.76338 50389.9
5.7787 50545.1
5.79401 50845.9
5.80933 51353.5
5.82465 51989.2
5.83996 52746.3
5.85528 53564.8
5.8706 54444.5
5.88591 55313.8
5.90123 56114.7
5.91655 56806.7
5.93186 57390
5.94718 57803.6
5.96249 58013.7
5.97781 58058.4
5.99313 57850
6.00844 57458.5
6.02376 56845.3
6.03908 56152.7
6.05439 55381.5
6.06971 54617.5
6.08503 53896.7
6.10034 53229.1
6.11566 52677.2
6.13097 52207.5
6.14629 51831.3
6.16161 51536.2
6.17692 51352.4
6.19224 51282.9
6.20756 51334.7
6.22287 51565.3
6.23819 51895.5
6.25351 52295.2
6.26882 52697.9
6.28414 53040.7
6.29945 53291.2
6.31477 53399.5
6.33009 53377.5
6.3454 53214.2
6.36072 52941
6.37604 52586.6
6.39135 52236.2
6.40667 51948.5
6.42199 51752.7
6.4373 51685.9
6.45262 51722.3
6.46793 51894.2
6.48325 52183.5
6.49857 52559.6
6.51388 52996.7
6.5292 53500.2
6.54452 54052.5
6.55983 54620.6
6.57515 55217.1
6.59046 55844.3
6.60578 56506.4
6.6211 57151.6
6.63641 57803.2
6.65173 58363.8
6.66705 58840.4
6.68236 59215.5
6.69768 59500.2
6.713 59670.1
6.72831 59726.5
6.74363 59655.1
6.75894 59483.8
6.77426 59260.1
6.78958 58987.9
6.80489 58655.2
6.82021 58262.6
6.83553 57828.8
6.85084 57347.4
6.86616 56854.6
6.88148 56376.5
6.89679 55934.5
6.91211 55485
6.92742 55067.2
6.94274 54654.4
6.95806 54272.6
6.97337 53893.3
6.98869 53556.1
7.00401 53233.7
7.01932 52934.1
7.03464 52614.4
7.04996 52325.6
7.06527 52080.5
7.08059 51882.6
7.0959 51728
7.11122 51606.1
7.12654 51478.6
7.14185 51393.5
7.15717 51359.3
7.17249 51363.5
7.1878 51383.6
7.20312 51431.2
7.21844 51534.7
7.23375 51660
7.24907 51833.4
7.26438 52029.6
7.2797 52205
7.29502 52361.6
7.31033 52474.1
7.32565 52582.5
7.34097 52630.1
7.35628 52627.9
7.3716 52562.5
7.38692 52436.4
7.40223 52233.6
7.41755 51982.4
7.43286 51704.5
7.44818 51382
7.4635 51071.9
7.47881 50767.7
7.49413 50499.3
7.50945 50247.4
7.52476 50017.9
7.54008 49776.8
7.55539 49488.7
7.57071 49183
7.58603 48826.7
7.60134 48455.6
7.61666 48052.5
7.63198 47688.8
7.64729 47312.3
7.66261 46987.1
7.67793 46721
7.69324 46576
7.70856 46527
7.72387 46608.6
7.73919 46789.2
7.75451 47044.9
7.76982 47341.6
7.78514 47660.2
7.80046 47947
7.81577 48125.7
7.83109 48160.6
7.84641 48070.5
7.86172 47849.9
7.87704 47545.3
7.89235 47151.1
7.90767 46759.6
7.92299 46374.9
7.9383 46058.9
7.95362 45809.8
7.96894 45651.1
7.98425 45526
7.99957 45438.6
8.01489 45385.2
8.0302 45331.9
8.04552 45247.8
8.06083 45178.2
8.07615 45095.4
8.09147 45013.9
8.10678 44936.1
8.1221 44842.7
8.13742 44783.2
8.15273 44728.3
8.16805 44707.2
8.18337 44665.5
8.19868 44671.2
8.214 44670.7
8.22931 44689
8.24463 44665.6
8.25995 44598.5
8.27526 44501.7
8.29058 44353.9
8.3059 44187.7
8.32121 43990.1
8.33653 43815.1
8.35185 43651.4
8.36716 43466.2
8.38248 43315
8.39779 43233.3
8.41311 43190.8
8.42843 43179.7
8.44374 43215.1
8.45906 43275.7
8.47438 43369.1
8.48969 43471.2
8.50501 43595.2
8.52032 43718.8
8.53564 43855.5
8.55096 44026.5
8.56627 44204.8
8.58159 44383.5
8.59691 44559.5
8.61222 44767.9
8.62754 44982.4
8.64286 45185.1
8.65817 45342.7
8.67349 45478.3
8.6888 45607
8.70412 45732.5
8.71944 45934
8.73475 46194.6
8.75007 46542.9
8.76539 46962.8
8.7807 47429.7
8.79602 47820.3
8.81134 48146.3
8.82665 48370.4
8.84197 48515
8.85728 48510.3
8.8726 48443.5
8.88792 48345.4
8.90323 48273.8
8.91855 48305.2
8.93387 48460.4
8.94918 48719.5
8.9645 49048.4
8.97982 49341.6
8.99513 49557.6
9.01045 49650.5
9.02576 49582.6
9.04108 49319.2
9.0564 48888.3
9.07171 48330.6
9.08703 47708
9.10235 47064.6
9.11766 46463.6
9.13298 45931.5
9.1483 45459.5
9.16361 45068
9.17893 44745.8
9.19424 44455
9.20956 44188.6
9.22488 43958.4
9.24019 43744.7
9.25551 43510
9.27083 43283.3
9.28614 43029
9.30146 42799.9
9.31678 42573
9.33209 42365.9
9.34741 42164.7
9.36272 42004.9
9.37804 41846.1
9.39336 41701.4
9.40867 41601.9
9.42399 41540.5
9.43931 41543.4
9.45462 41572.7
9.46994 41626.4
9.48525 41719.8
9.50057 41884.6
9.51589 42111.3
9.5312 42319.2
9.54652 42493.6
9.56184 42619.3
9.57715 42645.3
9.59247 42573.3
9.60779 42447.5
9.6231 42309.1
9.63842 42146
9.65373 41973.2
9.66905 41792.1
9.68437 41614.3
9.69968 41496.5
9.715 41451.7
9.73032 41480.4
9.74563 41510.8
9.76095 41518.7
9.77627 41566.1
9.79158 41631.3
9.8069 41688.4
9.82221 41731.1
9.83753 41776.1
9.85285 41842.5
9.86816 41905.7
9.88348 41929.9
9.8988 41957.5
9.91411 41976
9.92943 42058.1
9.94475 42154.7
9.96006 42305
9.97538 42429.3
9.99069 42572.9
10.006 42671.5
10.0213 42807.4
10.0366 42924.4
10.052 43075.6
10.0673 43248.2
10.0826 43427.4
10.0979 43612.6
10.1132 43802
10.1285 44047.9
10.1439 44309.6
10.1592 44583.6
10.1745 44790.2
10.1898 44928.1
10.2051 45010.3
10.2204 45022.1
10.2358 44994.9
10.2511 44966.3
10.2664 44952.3
10.2817 45003
10.297 45124.5
10.3123 45350.5
10.3277 45542.6
10.343 45687
10.3583 45724.7
10.3736 45656.1
10.3889 45506.6
10.4042 45275.2
10.4196 44987
10.4349 44669.6
10.4502 44335.5
10.4655 44068.2
10.4808 43869
10.4961 43749
10.5115 43645.3
10.5268 43598.6
10.5421 43615.2
10.5574 43654.5
10.5727 43676.3
10.588 43690.6
10.6033 43694.5
10.6187 43717.3
10.634 43674.6
10.6493 43563.4
10.6646 43385.5
10.6799 43194.7
10.6952 42980.4
10.7106 42768.5
10.7259 42577.5
10.7412 42408.9
10.7565 42302.4
10.7718 42248.1
10.7871 42204.6
10.8025 42189
10.8178 42214.8
10.8331 42213.9
10.8484 42148.9
10.8637 42034.9
10.879 41875.3
10.8944 41646.6
10.9097 41401.3
10.925 41167.7
10.9403 40924.7
10.9556 40706.4
10.9709 40519.4
10.9863 40356.6
11.0016 40206.9
11.0169 40079.5
11.0322 39956.3
11.0475 39821.4
11.0628 39673.1
11.0782 39521.2
11.0935 39374.1
11.1088 39218
11.1241 39070
11.1394 38961.3
11.1547 38885.4
11.1701 38798.1
11.1854 38743.3
11.2007 38678.4
11.216 38634.2
11.2313 38581.3
11.2466 38513
11.262 38461.8
11.2773 38412.7
11.2926 38388.5
11.3079 38359.1
11.3232 38321.5
11.3385 38288.8
11.3538 38245.6
11.3692 38191.4
11.3845 38159.7
11.3998 38127.1
11.4151 38076.4
11.4304 38037.3
11.4457 38003.9
11.4611 38001.2
11.4764 38011
11.4917 38026.9
11.507 38055.1
11.5223 38125.4
11.5376 38166.6
11.553 38210.1
11.5683 38215
11.5836 38184
11.5989 38149.3
11.6142 38105.8
11.6295 38038.1
11.6449 37953.9
11.6602 37849.5
11.6755 37744.9
11.6908 37661.6
11.7061 37600.2
11.7214 37544.6
11.7368 37514.1
11.7521 37515.2
11.7674 37542.9
11.7827 37588.1
11.798 37613.9
11.8133 37583.6
11.8287 37493.8
11.844 37422.5
11.8593 37327.9
11.8746 37246.2
11.8899 37212
11.9052 37188.4
11.9206 37141.8
11.9359 37098.7
11.9512 37080.6
11.9665 37075.6
11.9818 37094.6
11.9971 37087.7
12.0125 37060.2
12.0278 37018.9
12.0431 36965.5
12.0584 36911.2
12.0737 36857.7
12.089 36832
12.1044 36816.3
12.1197 36765.8
12.135 36746.4
12.1503 36753.1
12.1656 36717.5
12.1809 36693.8
12.1962 36657.2
12.2116 36634.9
12.2269 36630.7
12.2422 36635.3
12.2575 36655.5
12.2728 36646.1
12.2881 36649
12.3035 36673.4
12.3188 36698.9
12.3341 36705
12.3494 36703.5
12.3647 36714.4
12.38 36754.7
12.3954 36772.9
12.4107 36789
12.426 36810.6
12.4413 36830.5
12.4566 36856.1
12.4719 36868.9
12.4873 36877.8
12.5026 36857.6
12.5179 36853.5
12.5332 36827.1
12.5485 36836.4
12.5638 36850.5
12.5792 36852.5
12.5945 36855.1
12.6098 36867.4
12.6251 36903.8
12.6404 36934
12.6557 36947.3
12.6711 36975.9
12.6864 36983.1
12.7017 36982.4
12.717 36985.5
12.7323 36998.3
12.7476 36989.2
12.763 37000
12.7783 37038.1
12.7936 37112.8
12.8089 37197.5
12.8242 37249.5
12.8395 37280.9
12.8549 37295.2
12.8702 37261.7
12.8855 37195.6
12.9008 37140.6
12.9161 37085.6
12.9314 36997.2
12.9467 36908.5
12.9621 36849.9
12.9774 36820.8
12.9927 36813.9
13.008 36829.1
13.0233 36805.8
13.0386 36774.7
13.054 36794.3
13.0693 36802.8
13.0846 36791.6
13.0999 36804.4
13.1152 36805
13.1305 36801
13.1459 36781.9
13.1612 36765.4
13.1765 36755.9
13.1918 36739.8
13.2071 36694.1
13.2224 36656.1
13.2378 36629.2
13.2531 36646.2
13.2684 36668.8
13.2837 36674.9
13.299 36700.3
13.3143 36722.2
13.3297 36730.4
13.345 36745.2
13.3603 36797.6
13.3756 36891.1
13.3909 37022.7
13.4062 37132
13.4216 37280.4
13.4369 37453.2
13.4522 37637.5
13.4675 37810.3
13.4828 37946.7
13.4981 38055.7
13.5135 38137.3
13.5288 38184.6
13.5441 38240.2
13.5594 38281.1
13.5747 38332
13.59 38388.5
13.6054 38407.5
13.6207 38363.1
13.636 38236.9
13.6513 38059.3
13.6666 37867.5
13.6819 37688.9
13.6973 37492.1
13.7126 37293.8
13.7279 37128.4
13.7432 36992.6
13.7585 36874.4
13.7738 36766.7
13.7891 36685.7
13.8045 36609.8
13.8198 36543.6
13.8351 36500.6
13.8504 36451.4
13.8657 36427.6
13.881 36413.1
13.8964 36394.3
13.9117 36417.2
13.927 36442.2
13.9423 36457.6
13.9576 36481.5
13.9729 36470.9
13.9883 36420.2
14.0036 36353.5
14.0189 36270.2
14.0342 36146.2
14.0495 36028.4
14.0648 35898.8
14.0802 35767.8
14.0955 35642.6
14.1108 35533
14.1261 35412.8
14.1414 35326.4
14.1567 35236.3
14.1721 35155.3
14.1874 35120.7
14.2027 35082.4
14.218 35049.5
14.2333 35034
14.2486 35021.2
14.264 35010.5
14.2793 34987.3
14.2946 34929.1
14.3099 34877.5
14.3252 34831.8
14.3405 34795.9
14.3559 34763.5
14.3712 34733.3
14.3865 34715.7
14.4018 34685.6
14.4171 34672.3
14.4324 34661
14.4478 34635.2
14.4631 34598.8
14.4784 34571.3
14.4937 34568.5
14.509 34574
14.5243 34565.9
14.5397 34557.6
14.555 34554.8
14.5703 34572.3
14.5856 34559
14.6009 34540.7
14.6162 34498.7
14.6315 34464.6
14.6469 34441.9
14.6622 34422.8
14.6775 34406.9
14.6928 34386.5
14.7081 34334.4
14.7234 34290.4
14.7388 34254.8
14.7541 34210.2
14.7694 34148.9
14.7847 34095.7
14.8 34061.9
14.8153 34019.5
14.8307 33975.5
14.846 33946.2
14.8613 33922.9
14.8766 33884.5
14.8919 33863.2
14.9072 33850.1
14.9226 33846.7
14.9379 33814.2
14.9532 33779.9
14.9685 33771.4
14.9838 33768.6
14.9991 33778.6
15.0145 33748.8
15.0298 33730.5
15.0451 33723.2
15.0604 33705.1
15.0757 33704.7
15.091 33678.7
15.1064 33694.7
15.1217 33711.6
15.137 33695.2
15.1523 33716.6
15.1676 33750
15.1829 33780.3
15.1983 33798.2
15.2136 33799.7
15.2289 33792.3
15.2442 33823.9
15.2595 33860.8
15.2748 33885.5
15.2902 33929.1
15.3055 33954.5
15.3208 34000
15.3361 34054.6
15.3514 34102.4
15.3667 34144.6
15.382 34138.4
15.3974 34133.6
15.4127 34157.4
15.428 34138.1
15.4433 34114.8
15.4586 34082.8
15.4739 34034
15.4893 33988.7
15.5046 33943.5
15.5199 33909.6
15.5352 33878.8
15.5505 33842.9
15.5658 33817.2
15.5812 33814.9
15.5965 33837.3
15.6118 33820.5
15.6271 33783.1
15.6424 33748.6
15.6577 33728.1
15.6731 33707.9
15.6884 33686.8
15.7037 33673
15.719 33656.6
15.7343 33640.3
15.7496 33613.9
15.765 33560.6
15.7803 33540.3
15.7956 33522.7
15.8109 33496.6
15.8262 33450.7
15.8415 33396.6
15.8569 33327.7
15.8722 33259.1
15.8875 33209.4
15.9028 33154
15.9181 33122.5
15.9334 33060.4
15.9488 32992.6
15.9641 32979.1
15.9794 32992.9
15.9947 32970.5
16.01 32915.6
16.0253 32882.8
16.0407 32845.7
16.056 32824.1
16.0713 32810.4
16.0866 32770
16.1019 32779.3
16.1172 32800.3
16.1326 32808.8
16.1479 32811
16.1632 32812.8
16.1785 32803.6
16.1938 32784.7
16.2091 32786.5
16.2244 32788.1
16.2398 32765.6
16.2551 32749.3
16.2704 32758
16.2857 32777.5
16.301 32751.1
16.3163 32736.8
16.3317 32744.3
16.347 32765.5
16.3623 32773.7
16.3776 32762.4
16.3929 32727.3
16.4082 32691.2
16.4236 32677
16.4389 32643.6
16.4542 32597
16.4695 32545.1
16.4848 32506.1
16.5001 32482.6
16.5155 32467.2
16.5308 32436.3
16.5461 32422.3
16.5614 32405.1
16.5767 32376.8
16.592 32335.6
16.6074 32260.9
16.6227 32201.1
16.638 32149.1
16.6533 32152.8
16.6686 32152.9
16.6839 32115.9
16.6993 32077.9
16.7146 32010.5
16.7299 31965.2
16.7452 31969.2
16.7605 31960.5
16.7758 31935.6
16.7912 31916.1
16.8065 31931.5
16.8218 31913
16.8371 31878.4
16.8524 31829.8
16.8677 31835.4
16.8831 31828.2
16.8984 31809.7
16.9137 31774.2
16.929 31728.8
16.9443 31729.8
16.9596 31736.3
16.9749 31749.6
16.9903 31742.3
17.0056 31708.4
17.0209 31645.4
17.0362 31585
17.0515 31583.6
17.0668 31564.3
17.0822 31561.8
17.0975 31571.1
17.1128 31541.5
17.1281 31499.1
17.1434 31467.5
17.1587 31448.8
17.1741 31423.3
17.1894 31397.4
17.2047 31402.3
17.22 31373.2
17.2353 31344.8
17.2506 31311
17.266 31272.2
17.2813 31240.7
17.2966 31245.6
17.3119 31228.9
17.3272 31217.8
17.3425 31230.5
17.3579 31191.7
17.3732 31141.4
17.3885 31159.2
17.4038 31191
17.4191 31173.8
17.4344 31156.2
17.4498 31152.7
17.4651 31152.9
17.4804 31156.9
17.4957 31136.3
17.511 31104.4
17.5263 31115.8
17.5417 31119.4
17.557 31089.1
17.5723 31100.2
17.5876 31094.4
17.6029 31115.2
17.6182 31141.1
17.6336 31155.2
17.6489 31179.4
17.6642 31205.6
17.6795 31196.4
17.6948 31203.7
17.7101 31190.1
17.7255 31194.3
17.7408 31202.3
17.7561 31160.9
17.7714 31115.8
17.7867 31117.8
17.802 31103.1
17.8173 31079.5
17.8327 31054.6
17.848 31051.6
17.8633 31069.2
17.8786 31074.5
17.8939 31078.6
17.9092 31098.9
17.9246 31098.1
17.9399 31089.3
17.9552 31079.3
17.9705 31064
17.9858 31064.1
18.0011 31044.2
18.0165 31045.8
18.0318 31037.6
18.0471 30993.2
18.0624 30969.1
18.0777 30948.2
18.093 30977.3
18.1084 30986.6
18.1237 30979.2
18.139 30949.2
18.1543 30928.5
18.1696 30909.5
18.1849 30856.5
18.2003 30820.9
18.2156 30844.2
18.2309 30871.3
18.2462 30905.2
18.2615 30901.1
18.2768 30894.7
18.2922 30891.3
18.3075 30897.9
18.3228 30934.6
18.3381 30960.5
18.3534 30985.3
18.3687 31033.7
18.3841 31069.9
18.3994 31092.8
18.4147 31094.8
18.43 31078.9
18.4453 31054.9
18.4606 31026.3
18.476 31020.2
18.4913 30972.7
18.5066 30933.7
18.5219 30923.8
18.5372 30885.4
18.5525 30856.9
18.5679 30830.6
18.5832 30806.5
18.5985 30799.5
18.6138 30766.8
18.6291 30713.3
18.6444 30687.4
18.6597 30706.5
18.6751 30705.6
18.6904 30723.1
18.7057 30710.4
18.721 30667.3
18.7363 30641.1
18.7516 30653.4
18.767 30668.5
18.7823 30627.7
18.7976 30547.8
18.8129 30536.2
18.8282 30531.5
18.8435 30468
18.8589 30411.9
18.8742 30390.5
18.8895 30370.2
18.9048 30344.3
18.9201 30312.4
18.9354 30303.1
18.9508 30299.7
18.9661 30264
18.9814 30240.3
18.9967 30225.1
19.012 30192.2
19.0273 30171.2
19.0427 30179.6
19.058 30149
19.0733 30101.5
19.0886 30091.6
19.1039 30079.1
19.1192 30052.5
19.1346 30022.1
19.1499 30017.8
19.1652 30016.1
19.1805 30006.4
19.1958 30049.5
19.2111 30028.9
19.2265 29991.5
19.2418 29966.3
19.2571 29939.8
19.2724 29943.9
19.2877 29936.9
19.303 29905.2
19.3184 29880.4
19.3337 29848.7
19.349 29823.1
19.3643 29795.6
19.3796 29766.2
19.3949 29748.3
19.4102 29729.9
19.4256 29695.3
19.4409 29654.4
19.4562 29626.9
19.4715 29628.1
19.4868 29631.2
19.5021 29594.2
19.5175 29615
19.5328 29615.7
19.5481 29547.8
19.5634 29522.8
19.5787 29515.7
19.594 29477.9
19.6094 29495.6
19.6247 29508.5
19.64 29485.1
19.6553 29488.6
19.6706 29523
19.6859 29514.6
19.7013 29492.3
19.7166 29488.3
19.7319 29447.2
19.7472 29402.5
19.7625 29359.6
19.7778 29339.9
19.7932 29353.2
19.8085 29357.3
19.8238 29367.9
19.8391 29364.9
19.8544 29330.5
19.8697 29341.6
19.8851 29375.2
19.9004 29379.6
19.9157 29308.9
19.931 29285.3
19.9463 29292
19.9616 29325.4
19.977 29297.6
19.9923 29235.6
20.0076 29221.7
20.0229 29205.3
20.0382 29217.2
20.0535 29199.2
20.0689 29168.3
20.0842 29172.9
20.0995 29172
20.1148 29159.1
20.1301 29131.5
20.1454 29084.2
20.1608 29079.4
20.1761 29079.8
20.1914 29069.7
20.2067 29037.1
20.222 29025
20.2373 29051.3
20.2526 29101.7
20.268 29090.1
20.2833 29083.1
20.2986 29075.4
20.3139 29058.4
20.3292 29053.2
20.3445 29053.2
20.3599 29077.5
20.3752 29057.2
20.3905 29015.7
20.4058 29013.5
20.4211 29034.8
20.4364 29075.6
20.4518 29089.4
20.4671 29074.3
20.4824 29060.8
20.4977 29035.7
20.513 29041.8
20.5283 29048.7
20.5437 29037.3
20.559 29041.2
20.5743 29015.9
20.5896 29026.3
20.6049 29047.6
20.6202 29001.9
20.6356 28966.5
20.6509 28993.1
20.6662 29002.6
20.6815 28984.4
20.6968 28985.3
20.7121 28960.2
20.7275 28967.4
20.7428 28983.4
20.7581 28944.5
20.7734 28924.5
20.7887 28907.4
20.804 28883.6
20.8194 28931.3
20.8347 28938.8
20.85 28960.3
20.8653 28944.9
20.8806 28932.3
20.8959 28918.4
20.9113 28897.3
20.9266 28900.2
20.9419 28899.4
20.9572 28859
20.9725 28818.2
20.9878 28807.7
21.0031 28835.9
21.0185 28886.4
21.0338 28862.9
21.0491 28846.4
21.0644 28876.1
21.0797 28854.2
21.095 28851.2
21.1104 28816.7
21.1257 28805.9
21.141 28819.8
21.1563 28823
21.1716 28840
21.1869 28860
21.2023 28842.2
21.2176 28809.3
21.2329 28794.6
21.2482 28808.4
21.2635 28799.1
21.2788 28789.8
21.2942 28802.6
21.3095 28820.1
21.3248 28802.8
21.3401 28825.4
21.3554 28821.4
21.3707 28724.5
21.3861 28756.6
21.4014 28771.5
21.4167 28746.6
21.432 28764.5
21.4473 28797.7
21.4626 28768
21.478 28751.7
21.4933 28761.8
21.5086 28752.8
21.5239 28757.1
21.5392 28784.1
21.5545 28778.7
21.5699 28726.8
21.5852 28724.3
21.6005 28752.5
21.6158 28711.7
21.6311 28683.7
21.6464 28685.2
21.6618 28695.8
21.6771 28692.3
21.6924 28713.2
21.7077 28708.8
21.723 28685.9
21.7383 28726.2
21.7537 28771.8
21.769 28791.7
21.7843 28786.4
21.7996 28755.7
21.8149 28746.2
21.8302 28718.9
21.8455 28787.1
21.8609 28770.9
21.8762 28724.1
21.8915 28744.9
21.9068 28760.4
21.9221 28752.4
21.9374 28762
21.9528 28761.3
21.9681 28698.6
21.9834 28729
21.9987 28721.2
22.014 28684.3
22.0293 28719.3
22.0447 28811.4
22.06 28867.8
22.0753 28862.3
22.0906 28811.5
22.1059 28819.5
22.1212 28816.3
22.1366 28808.3
22.1519 28847.7
22.1672 28846.5
22.1825 28857.7
22.1978 28886.8
22.2131 28872
22.2285 28878.4
22.2438 28886.6
22.2591 28890.5
22.2744 28854.3
22.2897 28858.8
22.305 28859
22.3204 28884.4
22.3357 28909.8
22.351 28912.4
22.3663 28896.2
22.3816 28899.5
22.3969 28931.5
22.4123 28960.3
22.4276 28942.1
22.4429 28913.3
22.4582 28907.5
22.4735 28920.7
22.4888 28928.6
22.5042 28917.2
22.5195 28950
22.5348 28942.7
22.5501 28944.5
22.5654 28931.9
22.5807 28924.7
22.596 28932.5
22.6114 28950.5
22.6267 28913.8
22.642 28879.4
22.6573 28899.2
22.6726 28928.7
22.6879 28947.3
22.7033 28944.6
22.7186 28888.7
22.7339 28905.6
22.7492 28929.3
22.7645 28946.1
22.7798 28943
22.7952 28928.2
22.8105 28928.3
22.8258 28963.7
22.8411 28938.7
22.8564 28943.2
22.8717 28987
22.8871 28977.7
22.9024 28993.3
22.9177 28960.7
22.933 28977.3
22.9483 28995.5
22.9636 29030.8
22.979 29018
22.9943 28988.3
