# xPDFsuite Configuration #
[PDF]
wavelength = 0.1
dataformat = QA
inputfile = B3_Bronze-3nm_ss_05.chi
backgroundfile = B3_Li-bkg_ss.chi
mode = xray
bgscale = 0.98705
composition = Ti O2
outputtype = iq
qmaxinst = 23.0
qmin = 0.1
qmax = 23.0
rmax = 30.0
rmin = 0.0
rstep = 0.01
rpoly = 0.9

[Misc]
inputdir = E:/Beamtime/PETRA-III_September-2019/BeamData/processed/Run1/B3/chi/chi_w_sigmas/chi_scaled
savedir = E:/Beamtime/PETRA-III_September-2019/BeamData/processed/Run1/B3
backgroundfilefull = E:/Beamtime/PETRA-III_September-2019/BeamData/processed/Run1/B3/chi/chi_w_sigmas/chi_scaled/B3_Li-bkg_ss.chi

#### start data
#S 1
#L Q($\AA^{-1}$)  intensity(a.u.)
0.111649 0
0.126965 0
0.142282 0
0.157598 0
0.172914 0
0.188231 0
0.203547 0
0.218864 0
0.23418 0
0.249496 0
0.264813 0
0.280129 0
0.295445 0
0.310762 0
0.326078 0
0.341394 0
0.356711 0
0.372027 0
0.387343 0
0.40266 0
0.417976 0
0.433292 0
0.448609 0
0.463925 0
0.479241 0
0.494558 0
0.509874 0
0.525191 0
0.540507 0
0.555823 0
0.57114 0
0.586456 0
0.601772 0
0.617089 0
0.632405 0
0.647721 0
0.663038 0
0.678354 0
0.69367 0
0.708987 0
0.724303 0
0.739619 0
0.754936 0
0.770252 0
0.785568 0
0.800885 0
0.816201 0
0.831518 0
0.846834 0
0.86215 1.27626
0.877467 91631.2
0.892783 91647.5
0.908099 91608
0.923416 92408.8
0.938732 93773.9
0.954048 95667.8
0.969365 97421.5
0.984681 98610.1
0.999997 98913.3
1.01531 98308.6
1.03063 96233
1.04595 93076.8
1.06126 88663.2
1.07658 83015.4
1.0919 76988.9
1.10721 69855.8
1.12253 63089.1
1.13784 55893.6
1.15316 49162.4
1.16848 42992.3
1.18379 37115.2
1.19911 32150.2
1.21443 27424.4
1.22974 23357.2
1.24506 19861.8
1.26038 16839.6
1.27569 14490.7
1.29101 12541.7
1.30632 11254.4
1.32164 10469.5
1.33696 10192.9
1.35227 10353.4
1.36759 10942.4
1.38291 11757.8
1.39822 13035
1.41354 14261.2
1.42886 15414.1
1.44417 16536.7
1.45949 17595.1
1.4748 18779.9
1.49012 20062
1.50544 21880.7
1.52075 24226.3
1.53607 27515.2
1.55139 32157
1.5667 37925
1.58202 46010.2
1.59733 55243.5
1.61265 66409.3
1.62797 79240.6
1.64328 92776
1.6586 108074
1.67392 122833
1.68923 137826
1.70455 151466
1.71987 163438
1.73518 173804
1.7505 181832
1.76581 188229
1.78113 192070
1.79645 193726
1.81176 193162
1.82708 190707
1.8424 186110
1.85771 180616
1.87303 173904
1.88835 167139
1.90366 160621
1.91898 154651
1.93429 149867
1.94961 146276
1.96493 144062
1.98024 142942
1.99556 142453
2.01088 142168
2.02619 141315
2.04151 139667
2.05683 136707
2.07214 132717
2.08746 127785
2.10277 121939
2.11809 115852
2.13341 109282
2.14872 103007
2.16404 97030.5
2.17936 91555.7
2.19467 86916.8
2.20999 82925.4
2.22531 79846.7
2.24062 77384.7
2.25594 75463.8
2.27125 73911.3
2.28657 72507.5
2.30189 71227.7
2.3172 69798.4
2.33252 68268.6
2.34784 66457.4
2.36315 64558.5
2.37847 62682.2
2.39379 60587.8
2.4091 58961
2.42442 57238.6
2.43973 56119.9
2.45505 55236.9
2.47037 54652.9
2.48568 54541.4
2.501 54656.3
2.51632 54990.2
2.53163 55431
2.54695 55961.2
2.56226 56512.5
2.57758 57002.5
2.5929 57421.3
2.60821 57725.4
2.62353 57848.7
2.63885 57700.9
2.65416 57348.1
2.66948 56812.2
2.6848 56130.8
2.70011 55396.6
2.71543 54848.3
2.73074 54438.7
2.74606 54276.9
2.76138 54389.4
2.77669 54874.8
2.79201 55828.9
2.80733 57154.3
2.82264 59222.3
2.83796 61977.4
2.85328 65560.3
2.86859 70198.3
2.88391 75566.1
2.89922 82239.5
2.91454 89627
2.92986 97892.9
2.94517 106683
2.96049 115462
2.97581 124246
2.99112 132050
3.00644 138898
3.02176 144099
3.03707 147476
3.05239 148891
3.0677 148318
3.08302 145868
3.09834 141971
3.11365 136999
3.12897 131562
3.14429 126122
3.1596 121178
3.17492 117234
3.19024 114210
3.20555 112436
3.22087 111628
3.23618 111467
3.2515 111608
3.26682 111723
3.28213 111493
3.29745 110555
3.31277 108959
3.32808 106555
3.3434 103422
3.35872 99911.2
3.37403 95940.5
3.38935 92121.5
3.40466 88333.7
3.41998 84871.1
3.4353 81838.6
3.45061 79198.7
3.46593 77133.2
3.48125 75435.1
3.49656 74135.5
3.51188 73219.5
3.52719 72741.4
3.54251 72774.1
3.55783 73182.9
3.57314 73960.8
3.58846 75005.2
3.60378 76271.1
3.61909 77647.1
3.63441 79062.4
3.64973 80380.4
3.66504 81507.8
3.68036 82392.9
3.69567 82970
3.71099 83222.9
3.72631 83247.9
3.74162 83043.6
3.75694 82942.1
3.77226 82805.6
3.78757 82903.9
3.80289 83330.7
3.81821 84084.8
3.83352 85189.5
3.84884 86701.1
3.86415 88370.1
3.87947 90122.4
3.89479 91649.6
3.9101 92824.4
3.92542 93537.5
3.94074 93747.2
3.95605 93399
3.97137 92601.2
3.98669 91265.8
4.002 89729.6
4.01732 88004.4
4.03263 86296.1
4.04795 84828.6
4.06327 83714.5
4.07858 83078.3
4.0939 82888.2
4.10922 83129
4.12453 83613.4
4.13985 84242.4
4.15517 84791
4.17048 85102.9
4.1858 85095.6
4.20111 84720.6
4.21643 84019.8
4.23175 82949.9
4.24706 81558
4.26238 79997
4.2777 78389.4
4.29301 76897.2
4.30833 75519.7
4.32365 74329.4
4.33896 73455.6
4.35428 72906.2
4.36959 72612.3
4.38491 72664.4
4.40023 72910.6
4.41554 73345.6
4.43086 73866.9
4.44618 74355.9
4.46149 74780.9
4.47681 74952.4
4.49213 74892.6
4.50744 74459.9
4.52276 73746.7
4.53807 72705.3
4.55339 71395.5
4.56871 69787.5
4.58402 68067.2
4.59934 66204.5
4.61466 64381.5
4.62997 62624.3
4.64529 60950
4.6606 59410.5
4.67592 57984.4
4.69124 56792.1
4.70655 55788.8
4.72187 55020.6
4.73719 54470.3
4.7525 54179.6
4.76782 54173.3
4.78314 54522.2
4.79845 55115.5
4.81377 56013.2
4.82908 57112.8
4.8444 58489.4
4.85972 60083.7
4.87503 61848.3
4.89035 63689.6
4.90567 65541.7
4.92098 67440.7
4.9363 69342.6
4.95162 71283.7
4.96693 73208.3
4.98225 75222.6
4.99756 77546.5
5.01288 79926
5.0282 82237.8
5.04351 84444.3
5.05883 86156.3
5.07415 87352.6
5.08946 87893.8
5.10478 87622.8
5.1201 86875.9
5.13541 85466.7
5.15073 83803.8
5.16604 81814.4
5.18136 79790.7
5.19668 77950.7
5.21199 76437.6
5.22731 75237.9
5.24263 74377.1
5.25794 73700
5.27326 73259.4
5.28858 73038.6
5.30389 73095.1
5.31921 73516.2
5.33452 74213.7
5.34984 75197.4
5.36516 76187.9
5.38047 76988
5.39579 77334
5.41111 77113.5
5.42642 76241.3
5.44174 74770.8
5.45706 72615.5
5.47237 69983.4
5.48769 66967.9
5.503 63847.5
5.51832 60911.8
5.53364 58197.7
5.54895 55957
5.56427 54137.5
5.57959 52675.8
5.5949 51544
5.61022 50551
5.62553 49745.9
5.64085 48975
5.65617 48335.3
5.67148 47755.5
5.6868 47316.5
5.70212 46951.3
5.71743 46701
5.73275 46575.8
5.74807 46577.7
5.76338 46741.6
5.7787 47131.1
5.79401 47672.1
5.80933 48428.1
5.82465 49276.6
5.83996 50231.1
5.85528 51213.7
5.8706 52218.5
5.88591 53192.2
5.90123 54124.6
5.91655 54942
5.93186 55653.1
5.94718 56183.4
5.96249 56531.5
5.97781 56715.1
5.99313 56717
6.00844 56577.8
6.02376 56306.2
6.03908 56033.9
6.05439 55734.9
6.06971 55473.4
6.08503 55235.1
6.10034 55051.3
6.11566 54960.4
6.13097 54895
6.14629 54876.2
6.16161 54914.5
6.17692 54987.4
6.19224 55116.4
6.20756 55250.4
6.22287 55454.2
6.23819 55654.4
6.25351 55842.8
6.26882 55927.3
6.28414 55906.2
6.29945 55727.1
6.31477 55369.9
6.33009 54824.4
6.3454 54117.3
6.36072 53324
6.37604 52484.6
6.39135 51663.8
6.40667 50934.8
6.42199 50298.5
6.4373 49808.8
6.45262 49450.4
6.46793 49257.2
6.48325 49151.5
6.49857 49094.8
6.51388 49076.2
6.5292 49064.6
6.54452 49063.7
6.55983 49057.3
6.57515 49085.6
6.59046 49124.8
6.60578 49215.7
6.6211 49325.7
6.63641 49511.2
6.65173 49676.1
6.66705 49933.6
6.68236 50231.5
6.69768 50631.2
6.713 51089.3
6.72831 51597.1
6.74363 52118.7
6.75894 52696.5
6.77426 53282.8
6.78958 53906.7
6.80489 54533.1
6.82021 55104.3
6.83553 55616.8
6.85084 56026.6
6.86616 56364.6
6.88148 56633.6
6.89679 56825.3
6.91211 56882.6
6.92742 56830.8
6.94274 56725.3
6.95806 56522.3
6.97337 56258.4
6.98869 55903
7.00401 55467.2
7.01932 54984.4
7.03464 54445.3
7.04996 53909.2
7.06527 53375.4
7.08059 52858.7
7.0959 52335
7.11122 51805.8
7.12654 51309.6
7.14185 50840.3
7.15717 50403.2
7.17249 49976.6
7.1878 49631.3
7.20312 49373.3
7.21844 49187.5
7.23375 49023.3
7.24907 48916.1
7.26438 48886.5
7.2797 48879.4
7.29502 48853
7.31033 48790.4
7.32565 48750
7.34097 48700.6
7.35628 48628.2
7.3716 48512.5
7.38692 48406.7
7.40223 48345.5
7.41755 48354.2
7.43286 48403.9
7.44818 48459.9
7.4635 48560.4
7.47881 48698.7
7.49413 48869.9
7.50945 49035.7
7.52476 49208.1
7.54008 49289.3
7.55539 49315.7
7.57071 49255.6
7.58603 49115.7
7.60134 48877.6
7.61666 48582.7
7.63198 48261.9
7.64729 47957.8
7.66261 47688.9
7.67793 47509.1
7.69324 47406.6
7.70856 47420.1
7.72387 47543.2
7.73919 47785.2
7.75451 48090.3
7.76982 48438.7
7.78514 48759.2
7.80046 49041.6
7.81577 49230.6
7.83109 49273.8
7.84641 49191.9
7.86172 48952.7
7.87704 48600.8
7.89235 48135.2
7.90767 47627
7.92299 47118.5
7.9383 46642.1
7.95362 46212.4
7.96894 45824.7
7.98425 45449
7.99957 45107.7
8.01489 44774.4
8.0302 44448.9
8.04552 44129.9
8.06083 43873.1
8.07615 43644.8
8.09147 43453.7
8.10678 43338
8.1221 43272
8.13742 43293.3
8.15273 43379.8
8.16805 43517.4
8.18337 43691.9
8.19868 43929.8
8.214 44210.9
8.22931 44492.7
8.24463 44749.8
8.25995 44964.8
8.27526 45140.8
8.29058 45253.9
8.3059 45355.6
8.32121 45389.4
8.33653 45390.5
8.35185 45329.6
8.36716 45218.8
8.38248 45080.6
8.39779 44947.4
8.41311 44796.9
8.42843 44605.5
8.44374 44417.9
8.45906 44216.4
8.47438 44018.9
8.48969 43810.8
8.50501 43617
8.52032 43443.2
8.53564 43275.5
8.55096 43150.9
8.56627 43000.2
8.58159 42842.1
8.59691 42666.6
8.61222 42559.9
8.62754 42499.3
8.64286 42469.4
8.65817 42460.1
8.67349 42476.5
8.6888 42544.7
8.70412 42705.3
8.71944 43010
8.73475 43459.1
8.75007 44052.6
8.76539 44743
8.7807 45519.4
8.79602 46253.2
8.81134 46936.4
8.82665 47509.3
8.84197 47979.8
8.85728 48287.9
8.8726 48461.3
8.88792 48532.9
8.90323 48574.6
8.91855 48647.2
8.93387 48772
8.94918 48967.2
8.9645 49173.3
8.97982 49367.4
8.99513 49472.6
9.01045 49467.1
9.02576 49285.4
9.04108 48930.7
9.0564 48407.9
9.07171 47741.5
9.08703 46987.6
9.10235 46215.2
9.11766 45500.8
9.13298 44871.9
9.1483 44299.1
9.16361 43807.9
9.17893 43371.7
9.19424 43003.7
9.20956 42685.9
9.22488 42379.5
9.24019 42102
9.25551 41810.9
9.27083 41575.6
9.28614 41352.2
9.30146 41160.3
9.31678 40963.9
9.33209 40783.6
9.34741 40634.3
9.36272 40540.3
9.37804 40490.7
9.39336 40488.6
9.40867 40499.9
9.42399 40515.5
9.43931 40559.9
9.45462 40639.2
9.46994 40743.6
9.48525 40860
9.50057 41033.3
9.51589 41231.6
9.5312 41387.2
9.54652 41502.6
9.56184 41538.7
9.57715 41495.2
9.59247 41356.2
9.60779 41153.1
9.6231 40891.6
9.63842 40603.7
9.65373 40306.9
9.66905 40006.6
9.68437 39755.2
9.69968 39571.7
9.715 39441
9.73032 39367
9.74563 39330.2
9.76095 39336.8
9.77627 39381.4
9.79158 39442.1
9.8069 39533.7
9.82221 39608.7
9.83753 39690.6
9.85285 39740.6
9.86816 39801.3
9.88348 39871.8
9.8988 39996.4
9.91411 40095.1
9.92943 40237.5
9.94475 40390.5
9.96006 40602.6
9.97538 40810.3
9.99069 41022.9
10.006 41215.5
10.0213 41450.9
10.0366 41680.7
10.052 41932.9
10.0673 42169.4
10.0826 42408.3
10.0979 42649.4
10.1132 42877.1
10.1285 43149.1
10.1439 43431.6
10.1592 43736
10.1745 43946.8
10.1898 44074.8
10.2051 44100.1
10.2204 44074.1
10.2358 44039
10.2511 44049.9
10.2664 44069.9
10.2817 44156.9
10.297 44309.2
10.3123 44556
10.3277 44828.8
10.343 45037.6
10.3583 45141.1
10.3736 45142.2
10.3889 45090.7
10.4042 44953.3
10.4196 44754.7
10.4349 44501.1
10.4502 44244.9
10.4655 44046.8
10.4808 43890.5
10.4961 43799.5
10.5115 43750.7
10.5268 43741.1
10.5421 43797.4
10.5574 43881.1
10.5727 43983.7
10.588 44066
10.6033 44149.5
10.6187 44194.5
10.634 44175.1
10.6493 44101.4
10.6646 43969.8
10.6799 43792.2
10.6952 43589.1
10.7106 43400.7
10.7259 43227.8
10.7412 43076.4
10.7565 42965.4
10.7718 42914.5
10.7871 42906.6
10.8025 42905
10.8178 42930.4
10.8331 42918.9
10.8484 42864.1
10.8637 42739.3
10.879 42561.6
10.8944 42337.8
10.9097 42070
10.925 41771.8
10.9403 41488.4
10.9556 41223.9
10.9709 40993.5
10.9863 40789.4
11.0016 40601.1
11.0169 40404.9
11.0322 40203
11.0475 40010.7
11.0628 39824.5
11.0782 39627.7
11.0935 39406.8
11.1088 39182.5
11.1241 38973.5
11.1394 38773.2
11.1547 38581.3
11.1701 38398
11.1854 38250.6
11.2007 38115.3
11.216 37968.5
11.2313 37831.6
11.2466 37725.8
11.262 37607.9
11.2773 37497.7
11.2926 37426.3
11.3079 37386
11.3232 37363.6
11.3385 37331.3
11.3538 37283.3
11.3692 37245.6
11.3845 37226.3
11.3998 37209.9
11.4151 37179.5
11.4304 37162.7
11.4457 37169.7
11.4611 37195.7
11.4764 37238.7
11.4917 37281.1
11.507 37313.4
11.5223 37363.1
11.5376 37414.4
11.553 37460.1
11.5683 37491.9
11.5836 37514.1
11.5989 37498.4
11.6142 37482.1
11.6295 37457.1
11.6449 37385.1
11.6602 37281
11.6755 37197.1
11.6908 37142.5
11.7061 37098.1
11.7214 37063.2
11.7368 37050.3
11.7521 37063.4
11.7674 37096.2
11.7827 37134.6
11.798 37168.5
11.8133 37181.7
11.8287 37174.1
11.844 37171.2
11.8593 37159.6
11.8746 37127.6
11.8899 37101.5
11.9052 37099.5
11.9206 37099.6
11.9359 37124.3
11.9512 37139.9
11.9665 37149.4
11.9818 37179.7
11.9971 37191.6
12.0125 37211.9
12.0278 37215.1
12.0431 37229.1
12.0584 37233.3
12.0737 37212.1
12.089 37183.2
12.1044 37168
12.1197 37163.9
12.135 37160.7
12.1503 37148.3
12.1656 37118.9
12.1809 37103.9
12.1962 37087.4
12.2116 37041.9
12.2269 37025.7
12.2422 37009.6
12.2575 37009.3
12.2728 37001.7
12.2881 37001.7
12.3035 37001.2
12.3188 36992.6
12.3341 36953.1
12.3494 36904.2
12.3647 36854
12.38 36810.1
12.3954 36776.7
12.4107 36780.7
12.426 36765.8
12.4413 36758.5
12.4566 36741.3
12.4719 36716.6
12.4873 36651.7
12.5026 36587.5
12.5179 36532.2
12.5332 36492
12.5485 36468.2
12.5638 36450.4
12.5792 36424.5
12.5945 36410.8
12.6098 36378
12.6251 36358.2
12.6404 36343.9
12.6557 36330.2
12.6711 36331.6
12.6864 36310.7
12.7017 36262.9
12.717 36258.4
12.7323 36282.9
12.7476 36295.6
12.763 36350.2
12.7783 36444.8
12.7936 36560.1
12.8089 36651.3
12.8242 36718.6
12.8395 36760.6
12.8549 36816.6
12.8702 36793.8
12.8855 36735.6
12.9008 36688.2
12.9161 36625.1
12.9314 36554
12.9467 36468.7
12.9621 36414.1
12.9774 36347.7
12.9927 36307.7
13.008 36290.1
13.0233 36261.9
13.0386 36253.7
13.054 36248.9
13.0693 36247.4
13.0846 36230.5
13.0999 36245.6
13.1152 36226.1
13.1305 36203.7
13.1459 36168.5
13.1612 36177.8
13.1765 36170.7
13.1918 36166.3
13.2071 36158.7
13.2224 36184
13.2378 36197.5
13.2531 36234
13.2684 36302.3
13.2837 36326.2
13.299 36376.3
13.3143 36416.3
13.3297 36431.3
13.345 36456.5
13.3603 36509.8
13.3756 36613
13.3909 36765.5
13.4062 36899.3
13.4216 37073.2
13.4369 37263.3
13.4522 37460.3
13.4675 37640.2
13.4828 37797.2
13.4981 37915.9
13.5135 37986.1
13.5288 38039.2
13.5441 38095.4
13.5594 38167.9
13.5747 38239
13.59 38300.3
13.6054 38305.8
13.6207 38252.4
13.636 38129.6
13.6513 37950.2
13.6666 37735.9
13.6819 37542.5
13.6973 37344.7
13.7126 37155.8
13.7279 37008.4
13.7432 36902.9
13.7585 36839.6
13.7738 36754.3
13.7891 36652.7
13.8045 36573.1
13.8198 36518.7
13.8351 36506.2
13.8504 36481.4
13.8657 36440.2
13.881 36406
13.8964 36419.5
13.9117 36459.9
13.927 36501.3
13.9423 36528.3
13.9576 36547.6
13.9729 36516.3
13.9883 36490.7
14.0036 36446.7
14.0189 36378.1
14.0342 36253.9
14.0495 36140.7
14.0648 36009.8
14.0802 35869.7
14.0955 35715.2
14.1108 35573.1
14.1261 35452.2
14.1414 35360.1
14.1567 35268.7
14.1721 35183.3
14.1874 35138.4
14.2027 35096.8
14.218 35051
14.2333 34995.8
14.2486 34953.5
14.264 34915.2
14.2793 34896.2
14.2946 34850.7
14.3099 34813
14.3252 34766.7
14.3405 34753.9
14.3559 34734.1
14.3712 34711.4
14.3865 34704.2
14.4018 34703.2
14.4171 34707.4
14.4324 34696.3
14.4478 34665.7
14.4631 34618.3
14.4784 34622.2
14.4937 34639.8
14.509 34649.4
14.5243 34663.7
14.5397 34691.5
14.555 34728.6
14.5703 34754.1
14.5856 34753.3
14.6009 34751.9
14.6162 34747.3
14.6315 34710
14.6469 34656.3
14.6622 34641.5
14.6775 34603.7
14.6928 34561.4
14.7081 34512.5
14.7234 34479.9
14.7388 34431
14.7541 34366.8
14.7694 34301.3
14.7847 34258.1
14.8 34217.6
14.8153 34167.4
14.8307 34119.5
14.846 34088.3
14.8613 34065
14.8766 34044
14.8919 33999.4
14.9072 33951
14.9226 33879.5
14.9379 33810.6
14.9532 33766.1
14.9685 33759.6
14.9838 33766.4
14.9991 33770.9
15.0145 33757.9
15.0298 33740.7
15.0451 33725.2
15.0604 33697.4
15.0757 33689.7
15.091 33673.5
15.1064 33639.5
15.1217 33628.5
15.137 33607.6
15.1523 33627.7
15.1676 33692.8
15.1829 33717
15.1983 33723.6
15.2136 33727.3
15.2289 33743.9
15.2442 33805.3
15.2595 33865.8
15.2748 33902.4
15.2902 33934.6
15.3055 33962.2
15.3208 33984.6
15.3361 34004.6
15.3514 34026.3
15.3667 34049.1
15.382 34076.8
15.3974 34099.2
15.4127 34124.7
15.428 34113
15.4433 34091.2
15.4586 34064.2
15.4739 34010.4
15.4893 33955.1
15.5046 33938.3
15.5199 33909.7
15.5352 33851.7
15.5505 33794.9
15.5658 33759.6
15.5812 33729.6
15.5965 33727.8
15.6118 33739.3
15.6271 33723.3
15.6424 33691.4
15.6577 33672.7
15.6731 33670
15.6884 33642.9
15.7037 33639.7
15.719 33615.8
15.7343 33575.5
15.7496 33529.3
15.765 33483.6
15.7803 33442.3
15.7956 33399.6
15.8109 33389.2
15.8262 33392.6
15.8415 33355.1
15.8569 33306.4
15.8722 33253.8
15.8875 33209.9
15.9028 33151.6
15.9181 33102.7
15.9334 33049.9
15.9488 33014.6
15.9641 32979.7
15.9794 32943.8
15.9947 32908.2
16.01 32865.3
16.0253 32860
16.0407 32841.1
16.056 32818.7
16.0713 32798.3
16.0866 32776.5
16.1019 32757.2
16.1172 32758
16.1326 32773.9
16.1479 32778.2
16.1632 32793.6
16.1785 32775.8
16.1938 32744.8
16.2091 32731.6
16.2244 32699.6
16.2398 32669
16.2551 32695.3
16.2704 32716.6
16.2857 32693.4
16.301 32696.5
16.3163 32700.4
16.3317 32688.3
16.347 32692
16.3623 32698.1
16.3776 32675.7
16.3929 32631.6
16.4082 32599
16.4236 32596.2
16.4389 32573.6
16.4542 32521.7
16.4695 32490.3
16.4848 32447.6
16.5001 32425.3
16.5155 32431.8
16.5308 32406.7
16.5461 32364.2
16.5614 32345.1
16.5767 32314.4
16.592 32280.2
16.6074 32216.5
16.6227 32199.6
16.638 32190.8
16.6533 32203.1
16.6686 32213.6
16.6839 32166.6
16.6993 32110.5
16.7146 32070.7
16.7299 32068.6
16.7452 32071
16.7605 32064.8
16.7758 32057.6
16.7912 32067.9
16.8065 32076.4
16.8218 32062.2
16.8371 32019.6
16.8524 31970.1
16.8677 31966.8
16.8831 31951.5
16.8984 31931
16.9137 31893.4
16.929 31858.3
16.9443 31848.1
16.9596 31855.7
16.9749 31875.7
16.9903 31861.3
17.0056 31838.4
17.0209 31817.6
17.0362 31797.9
17.0515 31769
17.0668 31729.7
17.0822 31703.8
17.0975 31686.8
17.1128 31670.1
17.1281 31630
17.1434 31594.6
17.1587 31579.2
17.1741 31574.4
17.1894 31557
17.2047 31553.4
17.22 31548.6
17.2353 31541.1
17.2506 31545
17.266 31529.9
17.2813 31490
17.2966 31468.8
17.3119 31456.5
17.3272 31432.5
17.3425 31426.8
17.3579 31413.5
17.3732 31369.9
17.3885 31364.4
17.4038 31400.7
17.4191 31407.2
17.4344 31404.4
17.4498 31425.1
17.4651 31429.1
17.4804 31413.9
17.4957 31387.2
17.511 31361.3
17.5263 31367.2
17.5417 31376.2
17.557 31381.2
17.5723 31392.6
17.5876 31394.3
17.6029 31414.3
17.6182 31405.2
17.6336 31385.3
17.6489 31390.9
17.6642 31427.7
17.6795 31436.7
17.6948 31438.8
17.7101 31416
17.7255 31440.4
17.7408 31459.4
17.7561 31413.7
17.7714 31360.9
17.7867 31339.1
17.802 31340.5
17.8173 31319.8
17.8327 31287.4
17.848 31253.8
17.8633 31257.3
17.8786 31266.3
17.8939 31263.5
17.9092 31261.3
17.9246 31260.8
17.9399 31235.3
17.9552 31179.6
17.9705 31186.2
17.9858 31182.1
18.0011 31155.3
18.0165 31153.7
18.0318 31160.7
18.0471 31143.5
18.0624 31120
18.0777 31111.3
18.093 31126.4
18.1084 31107.2
18.1237 31078.7
18.139 31045.4
18.1543 31033.8
18.1696 31042.9
18.1849 31010.1
18.2003 30983.8
18.2156 30996.5
18.2309 30993
18.2462 30981.4
18.2615 30984.6
18.2768 30978.4
18.2922 30974.4
18.3075 31026.4
18.3228 31072.7
18.3381 31080.4
18.3534 31073.9
18.3687 31078
18.3841 31110.7
18.3994 31150
18.4147 31172
18.43 31177.3
18.4453 31133.8
18.4606 31112.6
18.476 31101.2
18.4913 31083.8
18.5066 31077.3
18.5219 31094.8
18.5372 31084.6
18.5525 31048.5
18.5679 30999.1
18.5832 30948.1
18.5985 30902.9
18.6138 30898.5
18.6291 30884.7
18.6444 30862.4
18.6597 30845.3
18.6751 30840.8
18.6904 30856.3
18.7057 30821.9
18.721 30801
18.7363 30790.7
18.7516 30796.7
18.767 30798.3
18.7823 30731.9
18.7976 30653.5
18.8129 30650.6
18.8282 30659
18.8435 30641.9
18.8589 30642.6
18.8742 30605.6
18.8895 30567.2
18.9048 30553.6
18.9201 30498.4
18.9354 30474
18.9508 30478.3
18.9661 30456.6
18.9814 30441.9
18.9967 30441.6
19.012 30365.2
19.0273 30332.4
19.0427 30355.4
19.058 30339
19.0733 30296
19.0886 30270
19.1039 30253.9
19.1192 30240.3
19.1346 30264.1
19.1499 30268.2
19.1652 30270.5
19.1805 30247.5
19.1958 30239.6
19.2111 30220.7
19.2265 30207.6
19.2418 30200.2
19.2571 30177
19.2724 30123.4
19.2877 30131.2
19.303 30143.3
19.3184 30113.9
19.3337 30062.5
19.349 30018.2
19.3643 29989.7
19.3796 29962.2
19.3949 29967.1
19.4102 29958.7
19.4256 29936.3
19.4409 29936.6
19.4562 29944.2
19.4715 29940.6
19.4868 29927
19.5021 29878.4
19.5175 29885.2
19.5328 29891.5
19.5481 29856.2
19.5634 29828.3
19.5787 29816.2
19.594 29757.3
19.6094 29735.9
19.6247 29739.1
19.64 29706.4
19.6553 29733.8
19.6706 29745.6
19.6859 29735.6
19.7013 29712.6
19.7166 29685.2
19.7319 29669.2
19.7472 29655.1
19.7625 29633.4
19.7778 29627.8
19.7932 29619.2
19.8085 29575.4
19.8238 29553.8
19.8391 29550.2
19.8544 29532.7
19.8697 29535.1
19.8851 29544
19.9004 29529.3
19.9157 29496.1
19.931 29464.7
19.9463 29473.9
19.9616 29465
19.977 29435.7
19.9923 29455.9
20.0076 29480.4
20.0229 29470.4
20.0382 29481.9
20.0535 29455.8
20.0689 29430.2
20.0842 29436.1
20.0995 29424.9
20.1148 29412.5
20.1301 29413.7
20.1454 29401.6
20.1608 29414.4
20.1761 29428.9
20.1914 29421.4
20.2067 29380.1
20.222 29366.2
20.2373 29402.9
20.2526 29396
20.268 29390.3
20.2833 29388.8
20.2986 29398.1
20.3139 29382.5
20.3292 29363.3
20.3445 29360.3
20.3599 29350.3
20.3752 29320.8
20.3905 29299.6
20.4058 29329.3
20.4211 29334.3
20.4364 29343.4
20.4518 29362.7
20.4671 29346.3
20.4824 29366.9
20.4977 29373.4
20.513 29348.9
20.5283 29384.7
20.5437 29390
20.559 29372.9
20.5743 29335.1
20.5896 29307.7
20.6049 29321.5
20.6202 29303.5
20.6356 29266.4
20.6509 29295.4
20.6662 29320.4
20.6815 29318.8
20.6968 29311.7
20.7121 29288.5
20.7275 29284
20.7428 29271.1
20.7581 29239.9
20.7734 29205.2
20.7887 29210.8
20.804 29207
20.8194 29232.8
20.8347 29237.6
20.85 29254
20.8653 29248.5
20.8806 29221.8
20.8959 29218.2
20.9113 29255.4
20.9266 29304.3
20.9419 29304.2
20.9572 29235.6
20.9725 29190
20.9878 29174.1
21.0031 29173.9
21.0185 29231
21.0338 29248.9
21.0491 29201.3
21.0644 29185.5
21.0797 29178.9
21.095 29202.5
21.1104 29218.1
21.1257 29217.1
21.141 29212.1
21.1563 29168.1
21.1716 29170.8
21.1869 29180.1
21.2023 29185.2
21.2176 29128.2
21.2329 29104.7
21.2482 29108.4
21.2635 29114.8
21.2788 29124.1
21.2942 29123.4
21.3095 29087.7
21.3248 29092.4
21.3401 29131.8
21.3554 29139.8
21.3707 29110.4
21.3861 29143.6
21.4014 29116.8
21.4167 29107.4
21.432 29148.2
21.4473 29139.1
21.4626 29130.1
21.478 29112.6
21.4933 29135.3
21.5086 29148.2
21.5239 29146.4
21.5392 29147.8
21.5545 29136.8
21.5699 29101
21.5852 29107.7
21.6005 29129.4
21.6158 29123.1
21.6311 29103.2
21.6464 29083.9
21.6618 29057.5
21.6771 29072.2
21.6924 29090.5
21.7077 29112
21.723 29082.4
21.7383 29097.9
21.7537 29135.5
21.769 29137.9
21.7843 29122.4
21.7996 29093.8
21.8149 29119.1
21.8302 29090.6
21.8455 29050.8
21.8609 29057.2
21.8762 29095.2
21.8915 29121.9
21.9068 29148.2
21.9221 29170
21.9374 29155.4
21.9528 29173.8
21.9681 29158
21.9834 29178.9
21.9987 29176.9
22.014 29145.4
22.0293 29178.5
22.0447 29256.6
22.06 29280.3
22.0753 29312.5
22.0906 29302.8
22.1059 29270.4
22.1212 29300.3
22.1366 29316
22.1519 29291.1
22.1672 29254.7
22.1825 29248.2
22.1978 29283.9
22.2131 29311.2
22.2285 29328
22.2438 29344.5
22.2591 29335.7
22.2744 29325.3
22.2897 29303.6
22.305 29299.6
22.3204 29317.3
22.3357 29345.5
22.351 29345.6
22.3663 29362.6
22.3816 29412
22.3969 29430.5
22.4123 29452.9
22.4276 29483.4
22.4429 29419.7
22.4582 29401.7
22.4735 29428.3
22.4888 29455
22.5042 29440.8
22.5195 29445.7
22.5348 29451.2
22.5501 29459.2
22.5654 29419.5
22.5807 29418.9
22.596 29415.7
22.6114 29479.5
22.6267 29458.7
22.642 29472.2
22.6573 29462.9
22.6726 29443
22.6879 29468.2
22.7033 29504.9
22.7186 29504.9
22.7339 29505.8
22.7492 29495.8
22.7645 29542
22.7798 29530.2
22.7952 29531.5
22.8105 29529.1
22.8258 29535.7
22.8411 29494.4
22.8564 29512.5
22.8717 29517.7
22.8871 29508.8
22.9024 29557
22.9177 29576.3
22.933 29547.1
22.9483 29549.8
22.9636 29595.4
22.979 29601.6
22.9943 29631.4
