# xPDFsuite Configuration #
[PDF]
wavelength = 0.1
dataformat = QA
inputfile = B3_Bronze-3nm_ss_11.chi
backgroundfile = B3_Li-bkg_ss.chi
mode = xray
bgscale = 0.98705
composition = Ti O2
outputtype = iq
qmaxinst = 23.0
qmin = 0.1
qmax = 23.0
rmax = 30.0
rmin = 0.0
rstep = 0.01
rpoly = 0.9

[Misc]
inputdir = E:/Beamtime/PETRA-III_September-2019/BeamData/processed/Run1/B3/chi/chi_w_sigmas/chi_scaled
savedir = E:/Beamtime/PETRA-III_September-2019/BeamData/processed/Run1/B3
backgroundfilefull = E:/Beamtime/PETRA-III_September-2019/BeamData/processed/Run1/B3/chi/chi_w_sigmas/chi_scaled/B3_Li-bkg_ss.chi

#### start data
#S 1
#L Q($\AA^{-1}$)  intensity(a.u.)
0.111649 0
0.126965 0
0.142282 0
0.157598 0
0.172914 0
0.188231 0
0.203547 0
0.218864 0
0.23418 0
0.249496 0
0.264813 0
0.280129 0
0.295445 0
0.310762 0
0.326078 0
0.341394 0
0.356711 0
0.372027 0
0.387343 0
0.40266 0
0.417976 0
0.433292 0
0.448609 0
0.463925 0
0.479241 0
0.494558 0
0.509874 0
0.525191 0
0.540507 0
0.555823 0
0.57114 0
0.586456 0
0.601772 0
0.617089 0
0.632405 0
0.647721 0
0.663038 0
0.678354 0
0.69367 0
0.708987 0
0.724303 0
0.739619 0
0.754936 0
0.770252 0
0.785568 0
0.800885 0
0.816201 0
0.831518 0
0.846834 0
0.86215 1.34443
0.877467 96525.5
0.892783 96865.6
0.908099 97358
0.923416 98599.2
0.938732 100782
0.954048 102919
0.969365 104475
0.984681 105119
0.999997 104525
1.01531 102854
1.03063 99303.2
1.04595 94617.3
1.06126 88577
1.07658 81302.1
1.0919 74016
1.10721 65698.6
1.12253 58040.8
1.13784 50192.2
1.15316 43008.7
1.16848 36615.2
1.18379 30660.9
1.19911 25787.2
1.21443 21343.3
1.22974 17638.6
1.24506 14513.2
1.26038 11927.3
1.27569 10032.4
1.29101 8696.93
1.30632 7940.09
1.32164 7666.71
1.33696 7905.91
1.35227 8466.47
1.36759 9516.34
1.38291 10780.3
1.39822 12449.9
1.41354 13949.6
1.42886 15270.9
1.44417 16464
1.45949 17603.1
1.4748 18927
1.49012 20434.4
1.50544 22477.2
1.52075 25179.6
1.53607 28922.8
1.55139 34168.7
1.5667 40443.1
1.58202 48966.9
1.59733 58436.9
1.61265 69598.7
1.62797 81930.2
1.64328 94378.6
1.6586 107691
1.67392 119875
1.68923 131359
1.70455 141042
1.71987 148868
1.73518 154925
1.7505 159104
1.76581 162183
1.78113 163776
1.79645 164046
1.81176 163164
1.82708 161281
1.8424 158290
1.85771 154907
1.87303 150898
1.88835 146839
1.90366 142815
1.91898 138947
1.93429 135522
1.94961 132718
1.96493 130742
1.98024 129424
1.99556 128326
2.01088 127247
2.02619 125498
2.04151 122982
2.05683 119312
2.07214 114912
2.08746 109921
2.10277 104427
2.11809 99001.2
2.13341 93507.7
2.14872 88524.7
2.16404 83974.6
2.17936 79983
2.19467 76727.7
2.20999 73984.1
2.22531 71963.8
2.24062 70271.6
2.25594 68901.1
2.27125 67675.5
2.28657 66355
2.30189 65110.2
2.3172 63714
2.33252 62356.4
2.34784 60817.5
2.36315 59384
2.37847 58055.4
2.39379 56678.7
2.4091 55722.6
2.42442 54810
2.43973 54335
2.45505 53961.9
2.47037 53778.3
2.48568 53785.7
2.501 53891.6
2.51632 54065
2.53163 54234.3
2.54695 54387.2
2.56226 54548.8
2.57758 54704
2.5929 54801.9
2.60821 54977.9
2.62353 55165.1
2.63885 55349.4
2.65416 55582.3
2.66948 55882.5
2.6848 56315
2.70011 56747.3
2.71543 57427.6
2.73074 58131.2
2.74606 59037.5
2.76138 60130.1
2.77669 61497.1
2.79201 63299.1
2.80733 65417.4
2.82264 68349.1
2.83796 72117.2
2.85328 76915.4
2.86859 83089.8
2.88391 90163.5
2.89922 98738.7
2.91454 107898
2.92986 117632
2.94517 127438
2.96049 136627
2.97581 145087
2.99112 151844
3.00644 156936
3.02176 159874
3.03707 160639
3.05239 159322
3.0677 156295
3.08302 151879
3.09834 146652
3.11365 141075
3.12897 135549
3.14429 130518
3.1596 126068
3.17492 122567
3.19024 119581
3.20555 117369
3.22087 115516
3.23618 113734
3.2515 111804
3.26682 109511
3.28213 106860
3.29745 103620
3.31277 100114
3.32808 96283.6
3.3434 92314.9
3.35872 88577.4
3.37403 84944.6
3.38935 81872.8
3.40466 79165.3
3.41998 76918.4
3.4353 75173.8
3.45061 73803.3
3.46593 72909.8
3.48125 72270
3.49656 71921.6
3.51188 71752.8
3.52719 71819.2
3.54251 72140.1
3.55783 72509.3
3.57314 72932.7
3.58846 73296.6
3.60378 73556.1
3.61909 73716.3
3.63441 73753.4
3.64973 73807.2
3.66504 73738.4
3.68036 73805.6
3.69567 73993.7
3.71099 74367.5
3.72631 75028.1
3.74162 75975.4
3.75694 77299.5
3.77226 78905.9
3.78757 80661.3
3.80289 82497.4
3.81821 84270.5
3.83352 85834.6
3.84884 87124.4
3.86415 87985.7
3.87947 88342.2
3.89479 88176.3
3.9101 87526.2
3.92542 86437.7
3.94074 85136.6
3.95605 83613.6
3.97137 82168
3.98669 80700.6
4.002 79506.9
4.01732 78561.4
4.03263 77947.3
4.04795 77643.1
4.06327 77699.7
4.07858 77964.7
4.0939 78490.1
4.10922 79132.6
4.12453 79832.3
4.13985 80537
4.15517 81070.6
4.17048 81431.2
4.1858 81544.9
4.20111 81474.3
4.21643 81266.5
4.23175 80882.8
4.24706 80355.8
4.26238 79771.8
4.2777 79242.6
4.29301 78800
4.30833 78443.5
4.32365 78275.3
4.33896 78371
4.35428 78695.1
4.36959 79032.2
4.38491 79476.8
4.40023 79808.4
4.41554 80023.7
4.43086 79953.1
4.44618 79523.9
4.46149 78656.3
4.47681 77360.5
4.49213 75647.3
4.50744 73617.8
4.52276 71365.6
4.53807 68978.3
4.55339 66642.8
4.56871 64329.8
4.58402 62214.9
4.59934 60237.7
4.61466 58512.9
4.62997 57062.9
4.64529 55828
4.6606 54896.7
4.67592 54159.4
4.69124 53713.8
4.70655 53484.8
4.72187 53478.6
4.73719 53714.3
4.7525 54168.2
4.76782 54842.8
4.78314 55739.7
4.79845 56775.4
4.81377 57962.9
4.82908 59220.9
4.8444 60567.7
4.85972 61904.2
4.87503 63191.2
4.89035 64392.3
4.90567 65508
4.92098 66561.4
4.9363 67595.5
4.95162 68645.6
4.96693 69811.1
4.98225 71247.3
4.99756 73155.1
5.01288 75278.5
5.0282 77490.7
5.04351 79762.6
5.05883 81639.4
5.07415 83056.4
5.08946 83893.6
5.10478 83926.2
5.1201 83503.9
5.13541 82363.7
5.15073 80999
5.16604 79315.8
5.18136 77646.5
5.19668 76148.1
5.21199 74988.2
5.22731 74078.4
5.24263 73467.6
5.25794 72958.1
5.27326 72625
5.28858 72406.1
5.30389 72359.7
5.31921 72556.9
5.33452 72950.7
5.34984 73551.3
5.36516 74102.3
5.38047 74447.9
5.39579 74327.6
5.41111 73695.8
5.42642 72442.1
5.44174 70669.5
5.45706 68260.8
5.47237 65473.7
5.48769 62423.7
5.503 59420.7
5.51832 56740.4
5.53364 54306.3
5.54895 52383.9
5.56427 50863.3
5.57959 49745.6
5.5949 48977
5.61022 48389.1
5.62553 47995.5
5.64085 47633.1
5.65617 47361.5
5.67148 47185.3
5.6868 47055.5
5.70212 46986.9
5.71743 46952.6
5.73275 47040.6
5.74807 47158.8
5.76338 47382.8
5.7787 47688.2
5.79401 48090.6
5.80933 48618
5.82465 49191.6
5.83996 49824.9
5.85528 50506.1
5.8706 51232.1
5.88591 51912
5.90123 52583.4
5.91655 53170
5.93186 53741.5
5.94718 54208.6
5.96249 54595.1
5.97781 54890.5
5.99313 55025.4
6.00844 55029.4
6.02376 54897.6
6.03908 54678.6
6.05439 54384.6
6.06971 54027.3
6.08503 53667.2
6.10034 53299.9
6.11566 52981.1
6.13097 52679.5
6.14629 52424
6.16161 52227.2
6.17692 52097.6
6.19224 52059.7
6.20756 52071.2
6.22287 52174.5
6.23819 52357.4
6.25351 52612.8
6.26882 52847.1
6.28414 53049.3
6.29945 53107
6.31477 53009.2
6.33009 52740.1
6.3454 52367.1
6.36072 51857.1
6.37604 51275.9
6.39135 50669.7
6.40667 50132.5
6.42199 49640.1
6.4373 49267.3
6.45262 48959.4
6.46793 48773.3
6.48325 48652.6
6.49857 48624.1
6.51388 48658
6.5292 48729.6
6.54452 48834.2
6.55983 48942.8
6.57515 49126.1
6.59046 49329.6
6.60578 49592.6
6.6211 49945.4
6.63641 50358
6.65173 50776.5
6.66705 51181.2
6.68236 51607.6
6.69768 52048.3
6.713 52513.5
6.72831 52942.9
6.74363 53337.9
6.75894 53689.1
6.77426 53996.1
6.78958 54244.3
6.80489 54456.9
6.82021 54615.2
6.83553 54702.4
6.85084 54673.8
6.86616 54545.4
6.88148 54339.5
6.89679 54098.8
6.91211 53789.9
6.92742 53452.1
6.94274 53102.8
6.95806 52724
6.97337 52357.5
6.98869 52001.2
7.00401 51671.1
7.01932 51393.2
7.03464 51122.3
7.04996 50900.1
7.06527 50705.1
7.08059 50585.2
7.0959 50451.5
7.11122 50351.8
7.12654 50244.2
7.14185 50153.6
7.15717 50068.2
7.17249 49977.6
7.1878 49869.1
7.20312 49771.4
7.21844 49659.8
7.23375 49539.5
7.24907 49398
7.26438 49278.7
7.2797 49121.7
7.29502 48984.5
7.31033 48831.1
7.32565 48697.6
7.34097 48540.7
7.35628 48391.5
7.3716 48233.4
7.38692 48086.9
7.40223 47958
7.41755 47857.5
7.43286 47788.4
7.44818 47710.7
7.4635 47625.8
7.47881 47534.2
7.49413 47460.6
7.50945 47427.7
7.52476 47405.1
7.54008 47342.6
7.55539 47242.3
7.57071 47086.9
7.58603 46880.7
7.60134 46617.2
7.61666 46338.1
7.63198 46049.9
7.64729 45795.9
7.66261 45563.3
7.67793 45415.1
7.69324 45353.1
7.70856 45381.9
7.72387 45513.5
7.73919 45725.5
7.75451 46035
7.76982 46378.4
7.78514 46715.2
7.80046 46964.8
7.81577 47129.7
7.83109 47136.9
7.84641 47016.8
7.86172 46754.8
7.87704 46370.3
7.89235 45890.1
7.90767 45370.7
7.92299 44879.6
7.9383 44433.5
7.95362 44039.7
7.96894 43709.6
7.98425 43377.5
7.99957 43110.2
8.01489 42850.9
8.0302 42627
8.04552 42416.1
8.06083 42278.3
8.07615 42167.2
8.09147 42105.4
8.10678 42090.8
8.1221 42126.3
8.13742 42237.3
8.15273 42376.3
8.16805 42547.5
8.18337 42690
8.19868 42849.1
8.214 43015.9
8.22931 43195
8.24463 43349.9
8.25995 43438.4
8.27526 43478.7
8.29058 43456.4
8.3059 43420.8
8.32121 43327.3
8.33653 43201.7
8.35185 43048.8
8.36716 42857
8.38248 42678.5
8.39779 42531.7
8.41311 42401.6
8.42843 42271.2
8.44374 42147.8
8.45906 42042.1
8.47438 41959.4
8.48969 41875.2
8.50501 41815.7
8.52032 41742.7
8.53564 41719.8
8.55096 41717.9
8.56627 41740.5
8.58159 41759.8
8.59691 41787.4
8.61222 41882.7
8.62754 41999.3
8.64286 42144.5
8.65817 42276.5
8.67349 42449.1
8.6888 42638.4
8.70412 42888.3
8.71944 43212.7
8.73475 43620.9
8.75007 44097.2
8.76539 44663
8.7807 45272.4
8.79602 45833
8.81134 46297.2
8.82665 46662
8.84197 46887.2
8.85728 46971.7
8.8726 46941
8.88792 46857.8
8.90323 46758.8
8.91855 46725.7
8.93387 46770
8.94918 46906.2
8.9645 47069.9
8.97982 47217.4
8.99513 47273.9
9.01045 47225.4
9.02576 46987.8
9.04108 46600.3
9.0564 46074.9
9.07171 45436.9
9.08703 44714.7
9.10235 43968.9
9.11766 43265.1
9.13298 42654.2
9.1483 42126.4
9.16361 41686.1
9.17893 41312.8
9.19424 41003.8
9.20956 40758
9.22488 40534
9.24019 40336.6
9.25551 40170.8
9.27083 40033.8
9.28614 39909.9
9.30146 39801.9
9.31678 39708.3
9.33209 39633.9
9.34741 39571.1
9.36272 39527.1
9.37804 39486.1
9.39336 39473.1
9.40867 39470.2
9.42399 39466.5
9.43931 39524.2
9.45462 39565.8
9.46994 39630.5
9.48525 39680.3
9.50057 39772.3
9.51589 39909.9
9.5312 40053
9.54652 40168.7
9.56184 40234.1
9.57715 40213.3
9.59247 40108.4
9.60779 39942
9.6231 39733.8
9.63842 39505.9
9.65373 39270
9.66905 39063.6
9.68437 38902.9
9.69968 38813.3
9.715 38761.8
9.73032 38755
9.74563 38738.8
9.76095 38762.2
9.77627 38815.4
9.79158 38894.3
9.8069 38974.2
9.82221 39052.6
9.83753 39146
9.85285 39215.6
9.86816 39261.7
9.88348 39291.6
9.8988 39357.9
9.91411 39413.2
9.92943 39497.9
9.94475 39569
9.96006 39683.9
9.97538 39839.8
9.99069 40020.7
10.006 40177.5
10.0213 40359.5
10.0366 40550.4
10.052 40763.9
10.0673 40976.3
10.0826 41173.7
10.0979 41376.8
10.1132 41580.3
10.1285 41855.7
10.1439 42149.5
10.1592 42460.6
10.1745 42685
10.1898 42839
10.2051 42907.3
10.2204 42942.1
10.2358 42929.2
10.2511 42957.7
10.2664 42962.4
10.2817 43044.4
10.297 43180.2
10.3123 43419.1
10.3277 43619.3
10.343 43772.2
10.3583 43822.3
10.3736 43801.9
10.3889 43667.6
10.4042 43450
10.4196 43183.3
10.4349 42916.1
10.4502 42614.5
10.4655 42364.7
10.4808 42162.7
10.4961 42028.7
10.5115 41929.2
10.5268 41890.8
10.5421 41907.6
10.5574 41943.7
10.5727 42004.1
10.588 42057.3
10.6033 42093.9
10.6187 42104.4
10.634 42085.6
10.6493 42029
10.6646 41912.5
10.6799 41734.9
10.6952 41538.7
10.7106 41358.1
10.7259 41205.4
10.7412 41086
10.7565 41010.3
10.7718 40987.8
10.7871 40987.8
10.8025 40998.5
10.8178 40997.7
10.8331 40978.5
10.8484 40938
10.8637 40814.9
10.879 40646.3
10.8944 40409
10.9097 40141.9
10.925 39852.2
10.9403 39545.6
10.9556 39277.5
10.9709 39025.6
10.9863 38797.1
11.0016 38591.2
11.0169 38416.9
11.0322 38251.3
11.0475 38063.6
11.0628 37866
11.0782 37674.8
11.0935 37489.2
11.1088 37311.7
11.1241 37153.3
11.1394 37014.8
11.1547 36881.3
11.1701 36754.9
11.1854 36653.6
11.2007 36555.3
11.216 36445.2
11.2313 36357
11.2466 36266.8
11.262 36172.6
11.2773 36095.1
11.2926 36055.2
11.3079 36023.6
11.3232 35991
11.3385 35949.8
11.3538 35893
11.3692 35840.5
11.3845 35829.8
11.3998 35824.5
11.4151 35779.2
11.4304 35750.9
11.4457 35728.5
11.4611 35729.2
11.4764 35771.5
11.4917 35841.3
11.507 35916.4
11.5223 35978.7
11.5376 36014.6
11.553 36048.6
11.5683 36084.4
11.5836 36112
11.5989 36127.1
11.6142 36137.4
11.6295 36132.6
11.6449 36102.8
11.6602 36047.2
11.6755 35977.5
11.6908 35904.5
11.7061 35869.8
11.7214 35858.5
11.7368 35862.1
11.7521 35884.7
11.7674 35960.9
11.7827 36008.4
11.798 36070.3
11.8133 36069.6
11.8287 36036
11.844 35992.1
11.8593 35941.1
11.8746 35893.2
11.8899 35889.9
11.9052 35862.8
11.9206 35816.7
11.9359 35793.4
11.9512 35792.5
11.9665 35815.9
11.9818 35833.4
11.9971 35838.1
12.0125 35851
12.0278 35858.1
12.0431 35851.4
12.0584 35819.7
12.0737 35786
12.089 35719.7
12.1044 35650.9
12.1197 35587.8
12.135 35560.4
12.1503 35525.2
12.1656 35486.3
12.1809 35467.3
12.1962 35457.5
12.2116 35431.8
12.2269 35402.5
12.2422 35366.2
12.2575 35352.2
12.2728 35333.2
12.2881 35335.9
12.3035 35336.4
12.3188 35314.4
12.3341 35268.4
12.3494 35221.2
12.3647 35199.2
12.38 35209.2
12.3954 35184.4
12.4107 35170.6
12.426 35171
12.4413 35169.6
12.4566 35160.5
12.4719 35131.3
12.4873 35099.6
12.5026 35050.5
12.5179 35013.3
12.5332 34977.5
12.5485 34974.2
12.5638 34987.1
12.5792 35000.4
12.5945 35014.9
12.6098 35016.5
12.6251 35006.9
12.6404 35014.5
12.6557 35025.2
12.6711 35042.3
12.6864 35046.7
12.7017 35017.8
12.717 34977.2
12.7323 34973.9
12.7476 34981.2
12.763 35006.2
12.7783 35065.7
12.7936 35126.7
12.8089 35194.1
12.8242 35253.5
12.8395 35321.4
12.8549 35367.4
12.8702 35346.5
12.8855 35262.7
12.9008 35185.6
12.9161 35109.4
12.9314 35021.5
12.9467 34941.8
12.9621 34888.7
12.9774 34842.5
12.9927 34801.2
13.008 34787
13.0233 34767.1
13.0386 34758.1
13.054 34758.3
13.0693 34764
13.0846 34764.5
13.0999 34776.1
13.1152 34796.9
13.1305 34799.1
13.1459 34780.6
13.1612 34783.4
13.1765 34767
13.1918 34747.4
13.2071 34729.8
13.2224 34751.3
13.2378 34789.5
13.2531 34830.6
13.2684 34858.5
13.2837 34882
13.299 34935.3
13.3143 34977
13.3297 35009.6
13.345 35063.7
13.3603 35116.3
13.3756 35183.5
13.3909 35293.8
13.4062 35463.2
13.4216 35668.9
13.4369 35870.1
13.4522 36030.3
13.4675 36175.6
13.4828 36298.4
13.4981 36402.6
13.5135 36471.2
13.5288 36515
13.5441 36562.7
13.5594 36635.9
13.5747 36681.1
13.59 36683.2
13.6054 36654.6
13.6207 36583.4
13.636 36464.3
13.6513 36300.7
13.6666 36117.9
13.6819 35933
13.6973 35753.4
13.7126 35570.9
13.7279 35401.1
13.7432 35293.4
13.7585 35215.7
13.7738 35128.4
13.7891 35055.1
13.8045 34997.6
13.8198 34935.7
13.8351 34878.2
13.8504 34846.7
13.8657 34835
13.881 34814.2
13.8964 34803.2
13.9117 34837.6
13.927 34853.2
13.9423 34882.4
13.9576 34916.4
13.9729 34895.4
13.9883 34853
14.0036 34789.9
14.0189 34714.5
14.0342 34587.6
14.0495 34474.9
14.0648 34350.4
14.0802 34211.2
14.0955 34073.7
14.1108 33968.2
14.1261 33853.6
14.1414 33753.5
14.1567 33668.8
14.1721 33613.7
14.1874 33574.3
14.2027 33535.1
14.218 33520.5
14.2333 33512.5
14.2486 33488.1
14.264 33460.4
14.2793 33438.9
14.2946 33418.7
14.3099 33376.6
14.3252 33343.1
14.3405 33317.1
14.3559 33296
14.3712 33305.2
14.3865 33314.8
14.4018 33300.3
14.4171 33272.5
14.4324 33244.6
14.4478 33216.7
14.4631 33170.6
14.4784 33135.8
14.4937 33124.2
14.509 33120.2
14.5243 33156.4
14.5397 33156.4
14.555 33172.6
14.5703 33204.2
14.5856 33203.3
14.6009 33188.1
14.6162 33155.8
14.6315 33086
14.6469 33025
14.6622 33005
14.6775 32997.6
14.6928 32983.3
14.7081 32932.5
14.7234 32879.9
14.7388 32831
14.7541 32775.4
14.7694 32705.5
14.7847 32647.6
14.8 32609.1
14.8153 32566.6
14.8307 32514
14.846 32482.3
14.8613 32467.3
14.8766 32419.4
14.8919 32373.1
14.9072 32345.8
14.9226 32344.8
14.9379 32307.1
14.9532 32253.8
14.9685 32252
14.9838 32244.9
14.9991 32259.2
15.0145 32238.2
15.0298 32216
15.0451 32208.7
15.0604 32215
15.0757 32210
15.091 32197.6
15.1064 32202
15.1217 32200.8
15.137 32166.7
15.1523 32150.9
15.1676 32181.8
15.1829 32223
15.1983 32253.3
15.2136 32264.7
15.2289 32297.7
15.2442 32355.4
15.2595 32383.5
15.2748 32406.1
15.2902 32438.8
15.3055 32469.3
15.3208 32500.2
15.3361 32533.4
15.3514 32568.2
15.3667 32569.7
15.382 32579.4
15.3974 32587.7
15.4127 32581.5
15.428 32563
15.4433 32566.1
15.4586 32532.1
15.4739 32481.5
15.4893 32431.1
15.5046 32389.5
15.5199 32364.3
15.5352 32336.8
15.5505 32322.2
15.5658 32304.2
15.5812 32278.6
15.5965 32272.6
15.6118 32249.2
15.6271 32219.4
15.6424 32188.6
15.6577 32140.9
15.6731 32123
15.6884 32118.7
15.7037 32122.9
15.719 32097.7
15.7343 32061.9
15.7496 32034.8
15.765 31980.3
15.7803 31958.5
15.7956 31929.4
15.8109 31899.4
15.8262 31868.2
15.8415 31823.7
15.8569 31778
15.8722 31724.6
15.8875 31672.5
15.9028 31617.2
15.9181 31565.9
15.9334 31507.3
15.9488 31486
15.9641 31475.4
15.9794 31449
15.9947 31431
16.01 31401.1
16.0253 31386.8
16.0407 31349.5
16.056 31301.5
16.0713 31278
16.0866 31275.1
16.1019 31263.7
16.1172 31254.2
16.1326 31257
16.1479 31267.6
16.1632 31267.3
16.1785 31260.8
16.1938 31257.8
16.2091 31249.4
16.2244 31246.7
16.2398 31209.2
16.2551 31206.9
16.2704 31232.4
16.2857 31248.3
16.301 31244.7
16.3163 31238.1
16.3317 31233.9
16.347 31244.4
16.3623 31238.7
16.3776 31208.7
16.3929 31199.4
16.4082 31207.2
16.4236 31178
16.4389 31127.9
16.4542 31101.5
16.4695 31045.5
16.4848 30996.8
16.5001 30986.1
16.5155 31010.2
16.5308 30990.9
16.5461 30947.1
16.5614 30939.5
16.5767 30919.5
16.592 30849.2
16.6074 30757
16.6227 30729.7
16.638 30721.8
16.6533 30724.1
16.6686 30713.9
16.6839 30689.7
16.6993 30658.2
16.7146 30626.4
16.7299 30628.2
16.7452 30635.6
16.7605 30612.3
16.7758 30554.4
16.7912 30509.5
16.8065 30494.5
16.8218 30489.2
16.8371 30480.6
16.8524 30448.9
16.8677 30436.7
16.8831 30437.5
16.8984 30420.6
16.9137 30384.5
16.929 30360.8
16.9443 30372.3
16.9596 30353.9
16.9749 30352.7
16.9903 30337.9
17.0056 30316
17.0209 30287.9
17.0362 30248
17.0515 30227.8
17.0668 30198.1
17.0822 30189.5
17.0975 30185.2
17.1128 30158.2
17.1281 30122.3
17.1434 30079.5
17.1587 30068.7
17.1741 30078.2
17.1894 30090.6
17.2047 30093.2
17.22 30055.8
17.2353 30017.4
17.2506 30001.8
17.266 29960
17.2813 29938.8
17.2966 29935.3
17.3119 29904.3
17.3272 29876.2
17.3425 29874.7
17.3579 29861.9
17.3732 29826.3
17.3885 29848.7
17.4038 29878.2
17.4191 29867.8
17.4344 29850.9
17.4498 29858.6
17.4651 29884.1
17.4804 29880
17.4957 29861.9
17.511 29836.4
17.5263 29824
17.5417 29799.1
17.557 29782.1
17.5723 29781.1
17.5876 29781.2
17.6029 29795.1
17.6182 29812.5
17.6336 29820.3
17.6489 29841.6
17.6642 29865.9
17.6795 29865.5
17.6948 29863.3
17.7101 29855.9
17.7255 29850
17.7408 29829.5
17.7561 29794.6
17.7714 29775
17.7867 29770.6
17.802 29798.9
17.8173 29798.3
17.8327 29738.3
17.848 29682.3
17.8633 29699.6
17.8786 29716.8
17.8939 29720.3
17.9092 29752.6
17.9246 29775.7
17.9399 29753.6
17.9552 29701.2
17.9705 29670.2
17.9858 29647.5
18.0011 29622.3
18.0165 29624.3
18.0318 29627.5
18.0471 29620.6
18.0624 29621.3
18.0777 29598
18.093 29573.1
18.1084 29553.3
18.1237 29559.3
18.139 29574.7
18.1543 29565.6
18.1696 29539.1
18.1849 29512.1
18.2003 29514.1
18.2156 29500.1
18.2309 29483.3
18.2462 29467.9
18.2615 29462.4
18.2768 29476.1
18.2922 29492.6
18.3075 29533.1
18.3228 29577.3
18.3381 29608.2
18.3534 29634
18.3687 29652.2
18.3841 29654.8
18.3994 29675.3
18.4147 29708
18.43 29677.9
18.4453 29650.4
18.4606 29619.9
18.476 29603.9
18.4913 29599
18.5066 29561.1
18.5219 29540.4
18.5372 29517.2
18.5525 29457.8
18.5679 29421.6
18.5832 29398.4
18.5985 29376.2
18.6138 29365.6
18.6291 29380
18.6444 29349.3
18.6597 29322.8
18.6751 29319.8
18.6904 29329.7
18.7057 29311.8
18.721 29292.4
18.7363 29275.2
18.7516 29282.7
18.767 29282.2
18.7823 29251.1
18.7976 29169.8
18.8129 29130.5
18.8282 29127.5
18.8435 29123.6
18.8589 29095.9
18.8742 29070
18.8895 29034.1
18.9048 29025.9
18.9201 28965.5
18.9354 28945
18.9508 28939.1
18.9661 28899.8
18.9814 28858.5
18.9967 28829.8
19.012 28769.5
19.0273 28750.7
19.0427 28790.8
19.058 28798.2
19.0733 28779.4
19.0886 28743.3
19.1039 28720.7
19.1192 28708.3
19.1346 28699.4
19.1499 28705.6
19.1652 28702.8
19.1805 28689.4
19.1958 28718.2
19.2111 28714.2
19.2265 28681.5
19.2418 28665.4
19.2571 28661.3
19.2724 28634.9
19.2877 28616
19.303 28595
19.3184 28542.4
19.3337 28485.8
19.349 28475
19.3643 28447.1
19.3796 28414
19.3949 28393.2
19.4102 28401.5
19.4256 28424.9
19.4409 28425.7
19.4562 28366.4
19.4715 28300.8
19.4868 28276
19.5021 28285.6
19.5175 28312.5
19.5328 28323.3
19.5481 28298.7
19.5634 28272.6
19.5787 28273.5
19.594 28243.1
19.6094 28220.4
19.6247 28167.7
19.64 28143.6
19.6553 28177
19.6706 28144.1
19.6859 28113.1
19.7013 28118.6
19.7166 28125.7
19.7319 28126.3
19.7472 28111.6
19.7625 28070.7
19.7778 28056.1
19.7932 28053.8
19.8085 28026.7
19.8238 28035.6
19.8391 28034.5
19.8544 27974.5
19.8697 27969
19.8851 27999.1
19.9004 27970.4
19.9157 27946.9
19.931 27930.7
19.9463 27962.9
19.9616 28008.5
19.977 27978.6
19.9923 27947.2
20.0076 27962.8
20.0229 27961.9
20.0382 27921.7
20.0535 27882.1
20.0689 27874.8
20.0842 27858.5
20.0995 27852.4
20.1148 27875.4
20.1301 27886.4
20.1454 27880.3
20.1608 27857.5
20.1761 27833.5
20.1914 27807.2
20.2067 27785.9
20.222 27780.2
20.2373 27815.3
20.2526 27833.6
20.268 27822.4
20.2833 27815.5
20.2986 27807.1
20.3139 27823.3
20.3292 27830.5
20.3445 27805.9
20.3599 27804.5
20.3752 27779
20.3905 27773.6
20.4058 27804.6
20.4211 27804
20.4364 27770.9
20.4518 27771.9
20.4671 27778.8
20.4824 27818.5
20.4977 27844.5
20.513 27851.9
20.5283 27859.3
20.5437 27854.1
20.559 27857.9
20.5743 27826.9
20.5896 27779.8
20.6049 27767.3
20.6202 27731
20.6356 27716.7
20.6509 27749.6
20.6662 27756.4
20.6815 27738.3
20.6968 27714.5
20.7121 27706.9
20.7275 27696.1
20.7428 27698.2
20.7581 27669.5
20.7734 27631.4
20.7887 27623.7
20.804 27606.9
20.8194 27643.4
20.8347 27663
20.85 27613.4
20.8653 27592.9
20.8806 27587
20.8959 27578.1
20.9113 27580.5
20.9266 27600.7
20.9419 27571.8
20.9572 27564.3
20.9725 27572.2
20.9878 27534.2
21.0031 27532.1
21.0185 27570.2
21.0338 27536.9
21.0491 27536.4
21.0644 27571.5
21.0797 27546.2
21.095 27519.7
21.1104 27573
21.1257 27602.7
21.141 27598
21.1563 27568.4
21.1716 27588.5
21.1869 27581
21.2023 27585.2
21.2176 27554.3
21.2329 27533.7
21.2482 27531.9
21.2635 27476.1
21.2788 27464.1
21.2942 27485.4
21.3095 27467
21.3248 27525.8
21.3401 27559.8
21.3554 27545.4
21.3707 27482.5
21.3861 27497.4
21.4014 27447.6
21.4167 27445.5
21.432 27487.6
21.4473 27473
21.4626 27434.1
21.478 27415.6
21.4933 27415.8
21.5086 27420.6
21.5239 27452.3
21.5392 27504.5
21.5545 27465.5
21.5699 27441.8
21.5852 27436.9
21.6005 27443.2
21.6158 27438.6
21.6311 27389.3
21.6464 27378.8
21.6618 27391.5
21.6771 27415.4
21.6924 27471.8
21.7077 27465.2
21.723 27466.7
21.7383 27460.2
21.7537 27449
21.769 27451.7
21.7843 27440.5
21.7996 27451.2
21.8149 27468.3
21.8302 27436.6
21.8455 27409.9
21.8609 27364.5
21.8762 27404.3
21.8915 27453.4
21.9068 27437.8
21.9221 27452.5
21.9374 27455.5
21.9528 27455.7
21.9681 27450.3
21.9834 27464
21.9987 27464.8
22.014 27434.1
22.0293 27473.7
22.0447 27521.2
22.06 27521.9
22.0753 27512
22.0906 27536.6
22.1059 27514.4
22.1212 27526.8
22.1366 27537
22.1519 27548.8
22.1672 27541.2
22.1825 27535.3
22.1978 27564.9
22.2131 27568.1
22.2285 27586.7
22.2438 27570.3
22.2591 27556.3
22.2744 27519.8
22.2897 27497.3
22.305 27509.9
22.3204 27550.1
22.3357 27582.1
22.351 27585.4
22.3663 27582.8
22.3816 27595
22.3969 27596.6
22.4123 27570.9
22.4276 27612.2
22.4429 27592.4
22.4582 27582
22.4735 27595.1
22.4888 27583.1
22.5042 27560.2
22.5195 27575.4
22.5348 27526.8
22.5501 27545.2
22.5654 27532.2
22.5807 27531.3
22.596 27514.8
22.6114 27555.2
22.6267 27550.8
22.642 27528.8
22.6573 27508.8
22.6726 27546.6
22.6879 27585.8
22.7033 27608.6
22.7186 27579.6
22.7339 27548.7
22.7492 27544.6
22.7645 27539.7
22.7798 27528.8
22.7952 27540.7
22.8105 27533.8
22.8258 27528.3
22.8411 27526.4
22.8564 27568.5
22.8717 27588.3
22.8871 27573.2
22.9024 27615.4
22.9177 27596.1
22.933 27582.4
22.9483 27596.6
22.9636 27625.9
22.979 27669.2
22.9943 27722.3
