# xPDFsuite Configuration #
[PDF]
wavelength = 0.1
dataformat = QA
inputfile = B3_Bronze-3nm_ss_24.chi
backgroundfile = B3_Li-bkg_ss.chi
mode = xray
bgscale = 0.98705
composition = Ti O2
outputtype = iq
qmaxinst = 23.0
qmin = 0.1
qmax = 23.0
rmax = 30.0
rmin = 0.0
rstep = 0.01
rpoly = 0.9

[Misc]
inputdir = E:/Beamtime/PETRA-III_September-2019/BeamData/processed/Run1/B3/chi/chi_w_sigmas/chi_scaled
savedir = E:/Beamtime/PETRA-III_September-2019/BeamData/processed/Run1/B3
backgroundfilefull = E:/Beamtime/PETRA-III_September-2019/BeamData/processed/Run1/B3/chi/chi_w_sigmas/chi_scaled/B3_Li-bkg_ss.chi

#### start data
#S 1
#L Q($\AA^{-1}$)  intensity(a.u.)
0.111649 0
0.126965 0
0.142282 0
0.157598 0
0.172914 0
0.188231 0
0.203547 0
0.218864 0
0.23418 0
0.249496 0
0.264813 0
0.280129 0
0.295445 0
0.310762 0
0.326078 0
0.341394 0
0.356711 0
0.372027 0
0.387343 0
0.40266 0
0.417976 0
0.433292 0
0.448609 0
0.463925 0
0.479241 0
0.494558 0
0.509874 0
0.525191 0
0.540507 0
0.555823 0
0.57114 0
0.586456 0
0.601772 0
0.617089 0
0.632405 0
0.647721 0
0.663038 0
0.678354 0
0.69367 0
0.708987 0
0.724303 0
0.739619 0
0.754936 0
0.770252 0
0.785568 0
0.800885 0
0.816201 0
0.831518 0
0.846834 0
0.86215 1.56784
0.877467 112565
0.892783 113403
0.908099 114135
0.923416 115764
0.938732 118195
0.954048 120371
0.969365 121707
0.984681 121761
0.999997 120126
1.01531 117026
1.03063 111596
1.04595 104874
1.06126 96701
1.07658 87147.4
1.0919 77707.3
1.10721 67247.6
1.12253 57805.7
1.13784 48462.2
1.15316 40107.8
1.16848 32916.3
1.18379 26199.8
1.19911 20765.4
1.21443 15811
1.22974 11810.2
1.24506 8589.05
1.26038 6054.67
1.27569 4299.59
1.29101 3186.51
1.30632 2695.59
1.32164 2970.59
1.33696 3710.97
1.35227 4891.24
1.36759 6514.4
1.38291 8178.36
1.39822 10115.2
1.41354 12068.9
1.42886 14033.3
1.44417 15989.4
1.45949 17919.3
1.4748 20101.2
1.49012 22537
1.50544 25683.5
1.52075 29595.3
1.53607 34576.7
1.55139 40911.9
1.5667 48095.4
1.58202 57015.6
1.59733 66326.1
1.61265 76313.9
1.62797 86445.9
1.64328 95783.2
1.6586 104615
1.67392 111765
1.68923 117492
1.70455 121480
1.71987 123930
1.73518 125278
1.7505 125943
1.76581 126680
1.78113 127178
1.79645 127894
1.81176 128450
1.82708 128773
1.8424 128492
1.85771 127715
1.87303 126219
1.88835 124045
1.90366 121277
1.91898 118050
1.93429 114673
1.94961 111319
1.96493 108331
1.98024 105621
1.99556 102982
2.01088 100521
2.02619 97607.3
2.04151 94444.1
2.05683 90695.6
2.07214 86779.4
2.08746 82784.5
2.10277 78778.4
2.11809 75191.6
2.13341 71877.4
2.14872 69062
2.16404 66666.9
2.17936 64624.6
2.19467 62973.4
2.20999 61460.9
2.22531 60199.1
2.24062 58953
2.25594 57794.7
2.27125 56630.3
2.28657 55531.5
2.30189 54568.5
2.3172 53667
2.33252 52872.5
2.34784 52152.3
2.36315 51647.4
2.37847 51366.7
2.39379 51138.5
2.4091 51223.5
2.42442 51222.2
2.43973 51468
2.45505 51645.1
2.47037 51855.2
2.48568 52165.8
2.501 52494.2
2.51632 52857
2.53163 53169.4
2.54695 53557.6
2.56226 54124.5
2.57758 54689
2.5929 55224.5
2.60821 55694.7
2.62353 55944.6
2.63885 56108.9
2.65416 56290.6
2.66948 56530.8
2.6848 56917.7
2.70011 57412.2
2.71543 58368.6
2.73074 59558.4
2.74606 61404.4
2.76138 63871.1
2.77669 67061
2.79201 71239.3
2.80733 76132
2.82264 82456.3
2.83796 90023.8
2.85328 98984.6
2.86859 109800
2.88391 121581
2.89922 135085
2.91454 148891
2.92986 162875
2.94517 176359
2.96049 188423
2.97581 199028
2.99112 207099
3.00644 212730
3.02176 215483
3.03707 215521
3.05239 213006
3.0677 208389
3.08302 201917
3.09834 194250
3.11365 185734
3.12897 176754
3.14429 167595
3.1596 158257
3.17492 149447
3.19024 140575
3.20555 132468
3.22087 124808
3.23618 117613
3.2515 111067
3.26682 104931
3.28213 99472.6
3.29745 94290.2
3.31277 89673.7
3.32808 85415.5
3.3434 81461.1
3.35872 78220.7
3.37403 75330.4
3.38935 73142.5
3.40466 71390.5
3.41998 70132.4
3.4353 69248.4
3.45061 68655.1
3.46593 68451.8
3.48125 68366.7
3.49656 68380.6
3.51188 68338.2
3.52719 68342.9
3.54251 68359.2
3.55783 68236.6
3.57314 68083.5
3.58846 67783.8
3.60378 67429.8
3.61909 67087.6
3.63441 66724.9
3.64973 66527.2
3.66504 66429.7
3.68036 66664.8
3.69567 67106.2
3.71099 67706.4
3.72631 68470.4
3.74162 69334.8
3.75694 70334.2
3.77226 71278.5
3.78757 72124.4
3.80289 72753.3
3.81821 73121.2
3.83352 73209
3.84884 73045.8
3.86415 72661.1
3.87947 72051.3
3.89479 71312.2
3.9101 70445.8
3.92542 69555.8
3.94074 68750.7
3.95605 68095.4
3.97137 67697.2
3.98669 67513.5
4.002 67604.9
4.01732 67892
4.03263 68395.1
4.04795 69102.3
4.06327 70171.4
4.07858 71539.8
4.0939 73326.7
4.10922 75471.4
4.12453 78062.8
4.13985 81119.9
4.15517 84417.6
4.17048 87995.8
4.1858 91490.5
4.20111 95030.3
4.21643 98427.4
4.23175 101467
4.24706 104102
4.26238 106058
4.2777 107478
4.29301 108128
4.30833 108003
4.32365 107154
4.33896 105591
4.35428 103343
4.36959 100428
4.38491 96944.4
4.40023 93137
4.41554 89029.1
4.43086 84799.9
4.44618 80614.3
4.46149 76427.2
4.47681 72625.1
4.49213 69116.5
4.50744 66098.5
4.52276 63510.6
4.53807 61307.6
4.55339 59565
4.56871 58117.8
4.58402 56990.1
4.59934 56120
4.61466 55486.7
4.62997 55109.3
4.64529 54905.6
4.6606 54889.6
4.67592 55093
4.69124 55397.1
4.70655 55834.7
4.72187 56323.6
4.73719 56884.2
4.7525 57452
4.76782 57990.9
4.78314 58547.2
4.79845 59034.7
4.81377 59449.1
4.82908 59871.2
4.8444 60398.6
4.85972 61005.5
4.87503 61717.8
4.89035 62484.4
4.90567 63380.6
4.92098 64381.9
4.9363 65581.3
4.95162 66991.4
4.96693 68641.1
4.98225 70613.2
4.99756 73101.2
5.01288 75834.4
5.0282 78652.2
5.04351 81540
5.05883 83997.9
5.07415 86035.9
5.08946 87504.7
5.10478 88279
5.1201 88625
5.13541 88363.3
5.15073 87839.4
5.16604 87024.6
5.18136 86165.1
5.19668 85407.4
5.21199 84791.5
5.22731 84204.7
5.24263 83585.2
5.25794 82789.2
5.27326 81812.8
5.28858 80670.1
5.30389 79426.6
5.31921 78273
5.33452 77282.8
5.34984 76456
5.36516 75733.9
5.38047 74946.9
5.39579 73940.4
5.41111 72657.3
5.42642 70971.7
5.44174 68988.1
5.45706 66595.2
5.47237 63996.2
5.48769 61239.3
5.503 58585.1
5.51832 56273.9
5.53364 54305
5.54895 52854.3
5.56427 51819.9
5.57959 51128.4
5.5949 50718.3
5.61022 50411
5.62553 50222.9
5.64085 50006.2
5.65617 49785.4
5.67148 49550.6
5.6868 49369.5
5.70212 49206.3
5.71743 49022.2
5.73275 48915.3
5.74807 48841.5
5.76338 48909
5.7787 49093.9
5.79401 49458.4
5.80933 49969.6
5.82465 50600
5.83996 51357
5.85528 52170
5.8706 53035.4
5.88591 53876.9
5.90123 54658.7
5.91655 55330.6
5.93186 55908.7
5.94718 56312.3
5.96249 56536.7
5.97781 56575.8
5.99313 56411
6.00844 56087
6.02376 55570.1
6.03908 54957.4
6.05439 54277.6
6.06971 53544.7
6.08503 52834.6
6.10034 52165
6.11566 51616.7
6.13097 51157.2
6.14629 50798.9
6.16161 50547.3
6.17692 50404.8
6.19224 50401.9
6.20756 50485.6
6.22287 50708.8
6.23819 51009.2
6.25351 51368.6
6.26882 51712.2
6.28414 51999.9
6.29945 52187.1
6.31477 52216.4
6.33009 52109.8
6.3454 51860
6.36072 51553.1
6.37604 51209.1
6.39135 50869.2
6.40667 50597.5
6.42199 50423.2
6.4373 50370.2
6.45262 50435.1
6.46793 50636.1
6.48325 50961
6.49857 51372.4
6.51388 51884.9
6.5292 52432.3
6.54452 53029.5
6.55983 53604.7
6.57515 54236.8
6.59046 54883.4
6.60578 55567.6
6.6211 56256.4
6.63641 56957.9
6.65173 57569.5
6.66705 58112.8
6.68236 58593.1
6.69768 58998.3
6.713 59297.5
6.72831 59458.4
6.74363 59499.6
6.75894 59414.8
6.77426 59235
6.78958 58982.4
6.80489 58688.8
6.82021 58350.5
6.83553 57953.9
6.85084 57518.6
6.86616 57031.6
6.88148 56545.8
6.89679 56030.1
6.91211 55489.2
6.92742 54924.7
6.94274 54358.2
6.95806 53794
6.97337 53240.3
6.98869 52712.2
7.00401 52207.5
7.01932 51705.4
7.03464 51209.5
7.04996 50782.2
7.06527 50407.9
7.08059 50121.1
7.0959 49874.6
7.11122 49680.6
7.12654 49542.7
7.14185 49458.7
7.15717 49426.1
7.17249 49442.7
7.1878 49529.4
7.20312 49652.5
7.21844 49821.6
7.23375 50025.5
7.24907 50313.8
7.26438 50638.2
7.2797 50942.1
7.29502 51208.8
7.31033 51445.2
7.32565 51669.5
7.34097 51847.2
7.35628 51996.8
7.3716 52056.9
7.38692 52063.2
7.40223 51965
7.41755 51821.4
7.43286 51606.5
7.44818 51321.6
7.4635 51032.4
7.47881 50711.8
7.49413 50420.2
7.50945 50101.2
7.52476 49797.2
7.54008 49446.5
7.55539 49044.3
7.57071 48610.6
7.58603 48129.1
7.60134 47641.3
7.61666 47132.5
7.63198 46642.8
7.64729 46181.4
7.66261 45760.7
7.67793 45466.8
7.69324 45266.2
7.70856 45196
7.72387 45252.5
7.73919 45468
7.75451 45786
7.76982 46138.8
7.78514 46451.4
7.80046 46714.4
7.81577 46908.1
7.83109 46955.6
7.84641 46871.4
7.86172 46675.4
7.87704 46391.4
7.89235 46041.8
7.90767 45683
7.92299 45352.8
7.9383 45058.9
7.95362 44846.9
7.96894 44704.4
7.98425 44557.1
7.99957 44463.4
8.01489 44391.1
8.0302 44344.8
8.04552 44239.4
8.06083 44134.2
8.07615 43985
8.09147 43853.4
8.10678 43723.5
8.1221 43596.4
8.13742 43508.9
8.15273 43438.2
8.16805 43381.2
8.18337 43313.9
8.19868 43263.1
8.214 43221
8.22931 43188.9
8.24463 43188.4
8.25995 43135.5
8.27526 43031.2
8.29058 42896
8.3059 42769.1
8.32121 42611.5
8.33653 42463.9
8.35185 42319
8.36716 42203.3
8.38248 42140.7
8.39779 42117.1
8.41311 42099.5
8.42843 42121.6
8.44374 42200.4
8.45906 42311.4
8.47438 42457.3
8.48969 42610.7
8.50501 42792
8.52032 42969.7
8.53564 43161.9
8.55096 43332.1
8.56627 43500.7
8.58159 43655.4
8.59691 43799.6
8.61222 43963.2
8.62754 44115
8.64286 44261.4
8.65817 44389.3
8.67349 44496.4
8.6888 44564.4
8.70412 44641.1
8.71944 44785.2
8.73475 45031.8
8.75007 45334.8
8.76539 45700.4
8.7807 46110.6
8.79602 46491.6
8.81134 46827.1
8.82665 47059.7
8.84197 47220.4
8.85728 47224.3
8.8726 47165.4
8.88792 47063.9
8.90323 47004.2
8.91855 47064.7
8.93387 47240.6
8.94918 47544.6
8.9645 47907.3
8.97982 48260.8
8.99513 48545.2
9.01045 48737.7
9.02576 48758.7
9.04108 48570.3
9.0564 48176.4
9.07171 47672.2
9.08703 47095.6
9.10235 46497.4
9.11766 45921.1
9.13298 45401.6
9.1483 44918.6
9.16361 44487.5
9.17893 44148.4
9.19424 43847.5
9.20956 43548.1
9.22488 43239.8
9.24019 42941.8
9.25551 42642.9
9.27083 42345.6
9.28614 42052.1
9.30146 41758.7
9.31678 41503.9
9.33209 41270.1
9.34741 41052
9.36272 40847.7
9.37804 40674.4
9.39336 40559.9
9.40867 40483.2
9.42399 40446.1
9.43931 40488.4
9.45462 40562
9.46994 40684.1
9.48525 40814.4
9.50057 41027.4
9.51589 41254.9
9.5312 41483.2
9.54652 41678.5
9.56184 41799.7
9.57715 41845.9
9.59247 41770.2
9.60779 41643
9.6231 41472.7
9.63842 41282.7
9.65373 41089.5
9.66905 40925.3
9.68437 40800
9.69968 40740.2
9.715 40707.6
9.73032 40708
9.74563 40714.1
9.76095 40753
9.77627 40793.7
9.79158 40859.1
9.8069 40930.1
9.82221 40977.5
9.83753 40995.7
9.85285 41002.9
9.86816 41022.8
9.88348 41053.2
9.8988 41088.3
9.91411 41102.4
9.92943 41164.4
9.94475 41228.3
9.96006 41336.9
9.97538 41452.5
9.99069 41575.8
10.006 41699.3
10.0213 41841.4
10.0366 41988.4
10.052 42144.8
10.0673 42297.1
10.0826 42445.1
10.0979 42629.1
10.1132 42826.4
10.1285 43078.1
10.1439 43336.8
10.1592 43609.7
10.1745 43827
10.1898 43969.3
10.2051 44021.2
10.2204 43986.9
10.2358 43914.9
10.2511 43857.7
10.2664 43805.4
10.2817 43823.6
10.297 43909.7
10.3123 44086.4
10.3277 44236.5
10.343 44350.6
10.3583 44353.8
10.3736 44253.8
10.3889 44089
10.4042 43846.6
10.4196 43572.1
10.4349 43269.1
10.4502 42969.5
10.4655 42721
10.4808 42522.3
10.4961 42387.4
10.5115 42297
10.5268 42253.5
10.5421 42270.2
10.5574 42325.8
10.5727 42398.8
10.588 42446.2
10.6033 42472.6
10.6187 42468.3
10.634 42419.4
10.6493 42298.2
10.6646 42127.5
10.6799 41911.3
10.6952 41705
10.7106 41500
10.7259 41309.8
10.7412 41147.9
10.7565 41051.4
10.7718 41013.3
10.7871 41004.2
10.8025 40983.5
10.8178 41009
10.8331 41020
10.8484 40989.4
10.8637 40911.7
10.879 40800.2
10.8944 40623.6
10.9097 40400.2
10.925 40164.1
10.9403 39910.8
10.9556 39681.3
10.9709 39492.2
10.9863 39344.1
11.0016 39219.2
11.0169 39110.5
11.0322 39014.4
11.0475 38906.2
11.0628 38779.1
11.0782 38629.3
11.0935 38476.4
11.1088 38347.8
11.1241 38230.7
11.1394 38127
11.1547 38042.1
11.1701 37965.7
11.1854 37915.8
11.2007 37862.4
11.216 37778.8
11.2313 37718.5
11.2466 37645
11.262 37580.3
11.2773 37548.5
11.2926 37545.6
11.3079 37543.3
11.3232 37517.3
11.3385 37471.2
11.3538 37423.7
11.3692 37381.4
11.3845 37354.2
11.3998 37346.7
11.4151 37319
11.4304 37283.2
11.4457 37265
11.4611 37256.1
11.4764 37235.4
11.4917 37245.5
11.507 37270.4
11.5223 37320.2
11.5376 37338.6
11.553 37330.1
11.5683 37309.7
11.5836 37275.3
11.5989 37220.2
11.6142 37154.3
11.6295 37073.9
11.6449 36954.4
11.6602 36809.4
11.6755 36698.6
11.6908 36599.8
11.7061 36532.5
11.7214 36455.5
11.7368 36400.6
11.7521 36375.1
11.7674 36396.3
11.7827 36408.1
11.798 36405.2
11.8133 36380.1
11.8287 36333.5
11.844 36289.9
11.8593 36219
11.8746 36140.2
11.8899 36098.5
11.9052 36033
11.9206 35965.9
11.9359 35913.7
11.9512 35909.2
11.9665 35908
11.9818 35906.7
11.9971 35884.8
12.0125 35851.7
12.0278 35803.5
12.0431 35763.7
12.0584 35740.9
12.0737 35726.3
12.089 35712.9
12.1044 35682.3
12.1197 35649.6
12.135 35617.9
12.1503 35621.8
12.1656 35605.5
12.1809 35602.8
12.1962 35596.4
12.2116 35613
12.2269 35629.2
12.2422 35646.6
12.2575 35661
12.2728 35650.4
12.2881 35650
12.3035 35708.1
12.3188 35765.2
12.3341 35769.6
12.3494 35775
12.3647 35788.7
12.38 35835.3
12.3954 35872.7
12.4107 35904.2
12.426 35930.6
12.4413 35940.2
12.4566 35948.5
12.4719 35954.8
12.4873 35959.1
12.5026 35945.5
12.5179 35949.7
12.5332 35932.3
12.5485 35947.7
12.5638 35946.8
12.5792 35984.1
12.5945 36011.4
12.6098 36049.6
12.6251 36079.3
12.6404 36101.7
12.6557 36135.4
12.6711 36190.3
12.6864 36205.9
12.7017 36177.2
12.717 36162.6
12.7323 36156.8
12.7476 36147
12.763 36174.6
12.7783 36217.9
12.7936 36282.8
12.8089 36356.6
12.8242 36413.2
12.8395 36427.1
12.8549 36445.6
12.8702 36419
12.8855 36329.2
12.9008 36239
12.9161 36160.4
12.9314 36093.6
12.9467 36009.2
12.9621 35949
12.9774 35917.5
12.9927 35895
13.008 35876.4
13.0233 35865.9
13.0386 35877.6
13.054 35897.1
13.0693 35894.9
13.0846 35878
13.0999 35860.5
13.1152 35835.6
13.1305 35817.8
13.1459 35797.9
13.1612 35812.2
13.1765 35775.5
13.1918 35745.1
13.2071 35713.4
13.2224 35717.3
13.2378 35729.5
13.2531 35715.5
13.2684 35713.4
13.2837 35683.6
13.299 35689
13.3143 35710.1
13.3297 35738.5
13.345 35753.8
13.3603 35799.1
13.3756 35894.5
13.3909 36017.1
13.4062 36134.7
13.4216 36294.5
13.4369 36460.8
13.4522 36615.7
13.4675 36774.2
13.4828 36891.3
13.4981 36993.5
13.5135 37094.2
13.5288 37161.4
13.5441 37189
13.5594 37235.1
13.5747 37286.5
13.59 37295.5
13.6054 37265.1
13.6207 37200.7
13.636 37066
13.6513 36899
13.6666 36720.2
13.6819 36522.3
13.6973 36340.4
13.7126 36170.7
13.7279 36044
13.7432 35914.4
13.7585 35809
13.7738 35723.7
13.7891 35650
13.8045 35568.2
13.8198 35522.3
13.8351 35503
13.8504 35455.8
13.8657 35416.4
13.881 35400
13.8964 35412.5
13.9117 35448.3
13.927 35472.3
13.9423 35508.3
13.9576 35546.6
13.9729 35541.1
13.9883 35492.2
14.0036 35423.4
14.0189 35326.7
14.0342 35201.7
14.0495 35092.2
14.0648 34949.3
14.0802 34804.7
14.0955 34662.8
14.1108 34534.8
14.1261 34414
14.1414 34332.3
14.1567 34248.1
14.1721 34161
14.1874 34133.5
14.2027 34083.7
14.218 34042.6
14.2333 34032.1
14.2486 34023.7
14.264 33992.7
14.2793 33958.1
14.2946 33910.7
14.3099 33836
14.3252 33790.5
14.3405 33772.5
14.3559 33735.6
14.3712 33687.7
14.3865 33667
14.4018 33665.9
14.4171 33661.9
14.4324 33643.9
14.4478 33606.5
14.4631 33545.1
14.4784 33505.3
14.4937 33504.2
14.509 33513
14.5243 33531
14.5397 33557.2
14.555 33579.2
14.5703 33601.6
14.5856 33612.5
14.6009 33611.1
14.6162 33581
14.6315 33510.7
14.6469 33453
14.6622 33424
14.6775 33421.4
14.6928 33416.2
14.7081 33360.6
14.7234 33307.1
14.7388 33270.5
14.7541 33250.9
14.7694 33212.4
14.7847 33152.7
14.8 33100.7
14.8153 33072.5
14.8307 33029.2
14.846 32989.7
14.8613 32957.4
14.8766 32928.2
14.8919 32864.7
14.9072 32822.1
14.9226 32816.5
14.9379 32792.9
14.9532 32750.4
14.9685 32749.2
14.9838 32742.7
14.9991 32749.6
15.0145 32750.8
15.0298 32734.5
15.0451 32720.2
15.0604 32701.8
15.0757 32720.7
15.091 32729.9
15.1064 32725.9
15.1217 32721.3
15.137 32695.1
15.1523 32699.7
15.1676 32735.7
15.1829 32753.9
15.1983 32804.3
15.2136 32849.5
15.2289 32877.5
15.2442 32926
15.2595 32966.7
15.2748 32996
15.2902 33008.4
15.3055 33034.3
15.3208 33061.8
15.3361 33091.7
15.3514 33131.5
15.3667 33169
15.382 33182.5
15.3974 33199.3
15.4127 33202.8
15.428 33178.1
15.4433 33157
15.4586 33110.5
15.4739 33045.3
15.4893 32990.1
15.5046 32954.1
15.5199 32915.1
15.5352 32918.3
15.5505 32889.4
15.5658 32857.3
15.5812 32846.7
15.5965 32865.7
15.6118 32869.3
15.6271 32833.5
15.6424 32778.7
15.6577 32785.5
15.6731 32789.5
15.6884 32759
15.7037 32762.3
15.719 32763.1
15.7343 32746.1
15.7496 32704.2
15.765 32643.9
15.7803 32616.2
15.7956 32573
15.8109 32535.3
15.8262 32506.6
15.8415 32469.9
15.8569 32413.2
15.8722 32342.1
15.8875 32292
15.9028 32225.7
15.9181 32182.5
15.9334 32119.4
15.9488 32059.3
15.9641 32042.8
15.9794 32041.2
15.9947 32036.6
16.01 31999.8
16.0253 31989.8
16.0407 31971.7
16.056 31939.2
16.0713 31917.8
16.0866 31874.9
16.1019 31867.7
16.1172 31865.2
16.1326 31855.1
16.1479 31857
16.1632 31875.3
16.1785 31870
16.1938 31840.2
16.2091 31828.3
16.2244 31848.1
16.2398 31850.6
16.2551 31830.7
16.2704 31835.5
16.2857 31847.4
16.301 31827.6
16.3163 31817.6
16.3317 31800.5
16.347 31791.7
16.3623 31793.4
16.3776 31767.6
16.3929 31729.3
16.4082 31722.6
16.4236 31745.3
16.4389 31741.4
16.4542 31687.5
16.4695 31609.1
16.4848 31580.7
16.5001 31551.7
16.5155 31514.2
16.5308 31492.6
16.5461 31450.8
16.5614 31415.1
16.5767 31406.5
16.592 31349.6
16.6074 31271.9
16.6227 31262.7
16.638 31230
16.6533 31193.3
16.6686 31169.4
16.6839 31142.5
16.6993 31111.7
16.7146 31061.9
16.7299 31049.1
16.7452 31058.7
16.7605 31028.5
16.7758 30982.2
16.7912 30971
16.8065 30991.7
16.8218 30935.1
16.8371 30882.2
16.8524 30857.9
16.8677 30859.1
16.8831 30862.9
16.8984 30859.1
16.9137 30832.2
16.929 30802.1
16.9443 30819
16.9596 30818.3
16.9749 30795.9
16.9903 30769.6
17.0056 30744.7
17.0209 30706.8
17.0362 30672.4
17.0515 30657.2
17.0668 30620.5
17.0822 30578
17.0975 30557.6
17.1128 30521.1
17.1281 30488.2
17.1434 30460.1
17.1587 30440.9
17.1741 30437.3
17.1894 30428.3
17.2047 30424.1
17.22 30406.8
17.2353 30385.1
17.2506 30368.4
17.266 30335.8
17.2813 30311.7
17.2966 30316.2
17.3119 30297.6
17.3272 30256.5
17.3425 30248
17.3579 30244.2
17.3732 30221.4
17.3885 30215.1
17.4038 30221.6
17.4191 30217.3
17.4344 30188.5
17.4498 30190.2
17.4651 30198.9
17.4804 30198
17.4957 30169.3
17.511 30134
17.5263 30164.1
17.5417 30182.1
17.557 30189.5
17.5723 30198.6
17.5876 30186
17.6029 30197.1
17.6182 30204.6
17.6336 30234.3
17.6489 30269.5
17.6642 30277.8
17.6795 30280.4
17.6948 30259.3
17.7101 30235.1
17.7255 30246.4
17.7408 30244.7
17.7561 30220
17.7714 30203.4
17.7867 30216.9
17.802 30236.3
17.8173 30232
17.8327 30172.3
17.848 30123.8
17.8633 30110.6
17.8786 30118.4
17.8939 30128.8
17.9092 30130.1
17.9246 30124.9
17.9399 30126.3
17.9552 30101.4
17.9705 30103.8
17.9858 30106.6
18.0011 30090.2
18.0165 30078.3
18.0318 30070
18.0471 30054
18.0624 30056.5
18.0777 30057
18.093 30076.8
18.1084 30089.5
18.1237 30048.1
18.139 29984.1
18.1543 29937.7
18.1696 29945.2
18.1849 29914.1
18.2003 29882.5
18.2156 29926
18.2309 29946.5
18.2462 29914.9
18.2615 29915.6
18.2768 29931
18.2922 29959.2
18.3075 30010.7
18.3228 30040
18.3381 30037
18.3534 30042.7
18.3687 30060.1
18.3841 30061.2
18.3994 30071.3
18.4147 30106.6
18.43 30137.8
18.4453 30130.9
18.4606 30129.5
18.476 30120.8
18.4913 30076.1
18.5066 30041.3
18.5219 30009.4
18.5372 29964.1
18.5525 29938.4
18.5679 29914.1
18.5832 29896.3
18.5985 29895.7
18.6138 29880
18.6291 29836.5
18.6444 29802.1
18.6597 29775.9
18.6751 29740.7
18.6904 29776.4
18.7057 29761.6
18.721 29721.6
18.7363 29677.6
18.7516 29683.1
18.767 29717.7
18.7823 29647.4
18.7976 29579
18.8129 29554.5
18.8282 29559.4
18.8435 29551.8
18.8589 29516.4
18.8742 29482.4
18.8895 29440.4
18.9048 29417
18.9201 29394.9
18.9354 29363.9
18.9508 29364
18.9661 29334.8
18.9814 29271.1
18.9967 29227.7
19.012 29189.3
19.0273 29185
19.0427 29209.2
19.058 29196.3
19.0733 29157.3
19.0886 29133
19.1039 29154.7
19.1192 29127.2
19.1346 29123
19.1499 29104.2
19.1652 29089.6
19.1805 29074.9
19.1958 29084
19.2111 29087.9
19.2265 29079
19.2418 29049.8
19.2571 29044
19.2724 29045.3
19.2877 29035.3
19.303 28998.6
19.3184 28942
19.3337 28904.4
19.349 28914
19.3643 28887.6
19.3796 28826
19.3949 28798
19.4102 28773
19.4256 28779.8
19.4409 28774.4
19.4562 28737.8
19.4715 28738.9
19.4868 28735.1
19.5021 28693.2
19.5175 28669.6
19.5328 28679.1
19.5481 28645.3
19.5634 28608.2
19.5787 28590.3
19.594 28577.3
19.6094 28580.1
19.6247 28555.1
19.64 28531.2
19.6553 28573.5
19.6706 28565.9
19.6859 28536.1
19.7013 28516
19.7166 28478.8
19.7319 28483.9
19.7472 28441.6
19.7625 28404.8
19.7778 28405.8
19.7932 28436.5
19.8085 28446
19.8238 28435.7
19.8391 28418.8
19.8544 28385.4
19.8697 28390
19.8851 28393.6
19.9004 28357.8
19.9157 28327.6
19.931 28318.4
19.9463 28332.3
19.9616 28322.1
19.977 28313.3
19.9923 28316
20.0076 28292.8
20.0229 28264.1
20.0382 28237.9
20.0535 28193.3
20.0689 28175.1
20.0842 28181.1
20.0995 28186.2
20.1148 28194.8
20.1301 28183.9
20.1454 28185.7
20.1608 28173.9
20.1761 28173.4
20.1914 28184.5
20.2067 28164.1
20.222 28137
20.2373 28157.8
20.2526 28175.3
20.268 28166.5
20.2833 28160.4
20.2986 28169.6
20.3139 28140.9
20.3292 28111.4
20.3445 28094
20.3599 28101.6
20.3752 28094.8
20.3905 28076.1
20.4058 28095.8
20.4211 28099.1
20.4364 28119.6
20.4518 28130.2
20.4671 28109.1
20.4824 28108.1
20.4977 28111.3
20.513 28129.2
20.5283 28141.1
20.5437 28124.8
20.559 28122.8
20.5743 28083.5
20.5896 28075.5
20.6049 28099.8
20.6202 28093
20.6356 28064
20.6509 28079.6
20.6662 28102.1
20.6815 28118.8
20.6968 28123
20.7121 28094
20.7275 28079.8
20.7428 28107.4
20.7581 28045.9
20.7734 27983
20.7887 27985.3
20.804 27997.4
20.8194 27986.8
20.8347 27977.5
20.85 27977.5
20.8653 27928.9
20.8806 27899.9
20.8959 27895.2
20.9113 27932.1
20.9266 27971.7
20.9419 27982.5
20.9572 27983.7
20.9725 27978.2
20.9878 27958.9
21.0031 27921.3
21.0185 27943.5
21.0338 27909
21.0491 27904
21.0644 27932.4
21.0797 27953.7
21.095 27977.8
21.1104 27961.3
21.1257 27957.8
21.141 27920.6
21.1563 27862.7
21.1716 27882.9
21.1869 27905
21.2023 27923.3
21.2176 27904.1
21.2329 27912.9
21.2482 27932.8
21.2635 27922.7
21.2788 27900.8
21.2942 27859.2
21.3095 27853.5
21.3248 27892.2
21.3401 27887.6
21.3554 27895.3
21.3707 27892.4
21.3861 27884.6
21.4014 27872.8
21.4167 27877.6
21.432 27908.2
21.4473 27914.4
21.4626 27881.3
21.478 27825.3
21.4933 27818.6
21.5086 27819.9
21.5239 27858.6
21.5392 27848
21.5545 27808.7
21.5699 27831.9
21.5852 27844.4
21.6005 27824.7
21.6158 27817.5
21.6311 27813.5
21.6464 27809.6
21.6618 27820.4
21.6771 27856.2
21.6924 27854.1
21.7077 27856.2
21.723 27847.4
21.7383 27843.7
21.7537 27839.9
21.769 27864.4
21.7843 27881.6
21.7996 27848
21.8149 27835.9
21.8302 27816.9
21.8455 27807.8
21.8609 27816.4
21.8762 27859.1
21.8915 27859.4
21.9068 27862.8
21.9221 27881.3
21.9374 27873.9
21.9528 27890.1
21.9681 27888.7
21.9834 27924.8
21.9987 27912.5
22.014 27886.6
22.0293 27946.9
22.0447 27979.1
22.06 27993.3
22.0753 27997.2
22.0906 27995
22.1059 27952.6
22.1212 27969.7
22.1366 27939.4
22.1519 27978.8
22.1672 27970.5
22.1825 27979.3
22.1978 28008.5
22.2131 27992.3
22.2285 27973.6
22.2438 27986.3
22.2591 27973.5
22.2744 27975.5
22.2897 27958.3
22.305 28016.3
22.3204 28048.6
22.3357 28060.9
22.351 28079.7
22.3663 28073.1
22.3816 28092.7
22.3969 28087.6
22.4123 28049.6
22.4276 28051
22.4429 28080.5
22.4582 28094.6
22.4735 28100.6
22.4888 28110.2
22.5042 28080.4
22.5195 28085.5
22.5348 28068.6
22.5501 28092.6
22.5654 28082.6
22.5807 28097.9
22.596 28123.9
22.6114 28147
22.6267 28129
22.642 28105.8
22.6573 28087.3
22.6726 28105
22.6879 28137.7
22.7033 28154.4
22.7186 28117
22.7339 28102.3
22.7492 28099
22.7645 28114.9
22.7798 28129.7
22.7952 28139.3
22.8105 28132.2
22.8258 28182.7
22.8411 28150
22.8564 28190.1
22.8717 28217.1
22.8871 28181.5
22.9024 28173.6
22.9177 28170.7
22.933 28163.6
22.9483 28168.7
22.9636 28185.4
22.979 28209.2
22.9943 28143.3
