# xPDFsuite Configuration #
[PDF]
wavelength = 0.1
dataformat = QA
inputfile = B3_Bronze-3nm_ss_39.chi
backgroundfile = B3_Li-bkg_ss.chi
mode = xray
bgscale = 0.98705
composition = Ti O2
outputtype = iq
qmaxinst = 23.0
qmin = 0.1
qmax = 23.0
rmax = 30.0
rmin = 0.0
rstep = 0.01
rpoly = 0.9

[Misc]
inputdir = E:/Beamtime/PETRA-III_September-2019/BeamData/processed/Run1/B3/chi/chi_w_sigmas/chi_scaled
savedir = E:/Beamtime/PETRA-III_September-2019/BeamData/processed/Run1/B3
backgroundfilefull = E:/Beamtime/PETRA-III_September-2019/BeamData/processed/Run1/B3/chi/chi_w_sigmas/chi_scaled/B3_Li-bkg_ss.chi

#### start data
#S 1
#L Q($\AA^{-1}$)  intensity(a.u.)
0.111649 0
0.126965 0
0.142282 0
0.157598 0
0.172914 0
0.188231 0
0.203547 0
0.218864 0
0.23418 0
0.249496 0
0.264813 0
0.280129 0
0.295445 0
0.310762 0
0.326078 0
0.341394 0
0.356711 0
0.372027 0
0.387343 0
0.40266 0
0.417976 0
0.433292 0
0.448609 0
0.463925 0
0.479241 0
0.494558 0
0.509874 0
0.525191 0
0.540507 0
0.555823 0
0.57114 0
0.586456 0
0.601772 0
0.617089 0
0.632405 0
0.647721 0
0.663038 0
0.678354 0
0.69367 0
0.708987 0
0.724303 0
0.739619 0
0.754936 0
0.770252 0
0.785568 0
0.800885 0
0.816201 0
0.831518 0
0.846834 0
0.86215 1.34789
0.877467 96773.9
0.892783 96766.8
0.908099 96351.8
0.923416 96364.2
0.938732 96552.7
0.954048 96909.3
0.969365 97064.1
0.984681 96748.1
0.999997 95527.6
1.01531 93611.5
1.03063 90174.7
1.04595 85826.8
1.06126 80369
1.07658 73700.2
1.0919 66929.7
1.10721 58971.1
1.12253 51657.1
1.13784 43991.4
1.15316 36957.3
1.16848 30690.6
1.18379 24714.8
1.19911 19803.5
1.21443 15245.3
1.22974 11584.4
1.24506 8607.18
1.26038 6281.8
1.27569 4722.66
1.29101 3711.06
1.30632 3370.59
1.32164 3641.09
1.33696 4380.31
1.35227 5514.52
1.36759 7136.9
1.38291 8926.2
1.39822 11056.4
1.41354 13041.9
1.42886 14858.5
1.44417 16548.6
1.45949 18016.4
1.4748 19366.6
1.49012 20817
1.50544 22566.9
1.52075 24788.9
1.53607 27936.9
1.55139 32392.7
1.5667 37986.7
1.58202 45656.9
1.59733 54608.4
1.61265 65275.2
1.62797 77578.8
1.64328 90478.5
1.6586 104994
1.67392 118845
1.68923 132864
1.70455 145599
1.71987 156727
1.73518 166320
1.7505 173612
1.76581 179645
1.78113 183310
1.79645 185068
1.81176 184780
1.82708 182534
1.8424 178577
1.85771 173607
1.87303 167601
1.88835 161269
1.90366 154975
1.91898 149037
1.93429 143920
1.94961 139886
1.96493 137023
1.98024 135415
1.99556 134337
2.01088 133637
2.02619 132580
2.04151 130945
2.05683 128254
2.07214 124665
2.08746 120293
2.10277 115026
2.11809 109522
2.13341 103524
2.14872 97748.6
2.16404 92174.1
2.17936 87072.9
2.19467 82795.9
2.20999 79090.4
2.22531 76313.1
2.24062 74082.3
2.25594 72412.8
2.27125 71089.1
2.28657 69907.5
2.30189 68802.2
2.3172 67485.6
2.33252 66110.1
2.34784 64493.7
2.36315 62869.7
2.37847 61386.9
2.39379 59796.7
2.4091 58713.5
2.42442 57659.3
2.43973 57260.1
2.45505 57037.9
2.47037 57134.4
2.48568 57493.5
2.501 57947.2
2.51632 58537.1
2.53163 58953
2.54695 59239.2
2.56226 59346.9
2.57758 59576.3
2.5929 59653.2
2.60821 59888.4
2.62353 59849.3
2.63885 59689.6
2.65416 59380.7
2.66948 58972.2
2.6848 58563.7
2.70011 58172
2.71543 57947.9
2.73074 57790.2
2.74606 57824.8
2.76138 58095.9
2.77669 58727.4
2.79201 59808
2.80733 61358.6
2.82264 63643.3
2.83796 66707.7
2.85328 70675.5
2.86859 75785.9
2.88391 81770.6
2.89922 89052.4
2.91454 97177.6
2.92986 106141
2.94517 115646
2.96049 125130
2.97581 134613
2.99112 142922
3.00644 150212
3.02176 155526
3.03707 158792
3.05239 159990
3.0677 158985
3.08302 156073
3.09834 151537
3.11365 146003
3.12897 139962
3.14429 134040
3.1596 128585
3.17492 124238
3.19024 120714
3.20555 118383
3.22087 116776
3.23618 115627
3.2515 114641
3.26682 113446
3.28213 111871
3.29745 109619
3.31277 106912
3.32808 103619
3.3434 99874.9
3.35872 96060.4
3.37403 92066.4
3.38935 88485.1
3.40466 85128.7
3.41998 82212.7
3.4353 79702.3
3.45061 77502.6
3.46593 75844.7
3.48125 74514.5
3.49656 73632.6
3.51188 73061.1
3.52719 72926.6
3.54251 73229.9
3.55783 73894.6
3.57314 74815.3
3.58846 76024.1
3.60378 77405.4
3.61909 78911
3.63441 80419.7
3.64973 81796.3
3.66504 82950.6
3.68036 83865.8
3.69567 84467.3
3.71099 84723
3.72631 84800.9
3.74162 84658.2
3.75694 84608
3.77226 84545.4
3.78757 84690.3
3.80289 85165
3.81821 85922.6
3.83352 87013.6
3.84884 88399.9
3.86415 89897.9
3.87947 91376.1
3.89479 92686.1
3.9101 93675.6
3.92542 94238.5
3.94074 94333.9
3.95605 93910.2
3.97137 93125.7
3.98669 91862.9
4.002 90442.3
4.01732 88915.7
4.03263 87490.3
4.04795 86316.4
4.06327 85501.4
4.07858 85116.7
4.0939 85126
4.10922 85538.7
4.12453 86227.7
4.13985 87074.5
4.15517 87804
4.17048 88315.7
4.1858 88501.6
4.20111 88371.5
4.21643 87952
4.23175 87220
4.24706 86175
4.26238 84971.3
4.2777 83697.4
4.29301 82533.5
4.30833 81442.2
4.32365 80599.2
4.33896 80036.1
4.35428 79811.6
4.36959 79791
4.38491 80065.3
4.40023 80402.6
4.41554 80806.8
4.43086 81177.9
4.44618 81396.7
4.46149 81390.7
4.47681 81127.3
4.49213 80545
4.50744 79638.2
4.52276 78437.7
4.53807 76935.5
4.55339 75251.9
4.56871 73344.5
4.58402 71376.9
4.59934 69303
4.61466 67315
4.62997 65412.2
4.64529 63589.2
4.6606 61940.2
4.67592 60424.4
4.69124 59125.9
4.70655 58012.1
4.72187 57140.9
4.73719 56591.3
4.7525 56306.2
4.76782 56311.6
4.78314 56591.5
4.79845 57159.9
4.81377 58019.5
4.82908 59127.6
4.8444 60527.7
4.85972 62132
4.87503 63908.4
4.89035 65761.4
4.90567 67639.2
4.92098 69575.6
4.9363 71527.2
4.95162 73538.2
4.96693 75561.4
4.98225 77746.3
4.99756 80215.3
5.01288 82811.6
5.0282 85332.4
5.04351 87889.1
5.05883 89932.9
5.07415 91499.9
5.08946 92408.4
5.10478 92480
5.1201 91981.5
5.13541 90728.4
5.15073 89100.7
5.16604 87093.5
5.18136 85007.8
5.19668 83073.1
5.21199 81400.4
5.22731 80015
5.24263 78982.2
5.25794 78129.5
5.27326 77525
5.28858 77137.4
5.30389 77017.1
5.31921 77282.5
5.33452 77841.4
5.34984 78663
5.36516 79480.8
5.38047 80127.1
5.39579 80303.5
5.41111 79890.6
5.42642 78787
5.44174 77065.1
5.45706 74654.5
5.47237 71775.3
5.48769 68573.1
5.503 65301.6
5.51832 62279.4
5.53364 59502
5.54895 57256
5.56427 55423.8
5.57959 53958.2
5.5949 52817.1
5.61022 51837.9
5.62553 51084
5.64085 50358.8
5.65617 49741.5
5.67148 49194.5
5.6868 48776.4
5.70212 48415.6
5.71743 48133.9
5.73275 48027.8
5.74807 48008.7
5.76338 48166.6
5.7787 48495.6
5.79401 49032.3
5.80933 49719.4
5.82465 50504.7
5.83996 51384.1
5.85528 52326.7
5.8706 53304.2
5.88591 54256.4
5.90123 55120.7
5.91655 55929.3
5.93186 56633.2
5.94718 57210.3
5.96249 57559.4
5.97781 57808.9
5.99313 57825.5
6.00844 57732.4
6.02376 57465.7
6.03908 57172.4
6.05439 56848.2
6.06971 56533.2
6.08503 56272.9
6.10034 56040.9
6.11566 55907.6
6.13097 55826.7
6.14629 55785.3
6.16161 55792.8
6.17692 55868.3
6.19224 56011.2
6.20756 56173.3
6.22287 56421.7
6.23819 56686.9
6.25351 56940.9
6.26882 57128.9
6.28414 57195.8
6.29945 57066.8
6.31477 56730.9
6.33009 56221.1
6.3454 55547.2
6.36072 54757
6.37604 53899.5
6.39135 53085.7
6.40667 52359.2
6.42199 51747.1
6.4373 51275.6
6.45262 50914.3
6.46793 50678.8
6.48325 50532.7
6.49857 50463.9
6.51388 50422
6.5292 50382.9
6.54452 50353.3
6.55983 50338
6.57515 50313.1
6.59046 50277.9
6.60578 50289.9
6.6211 50344.3
6.63641 50462.5
6.65173 50626.7
6.66705 50862.3
6.68236 51183.7
6.69768 51585.8
6.713 52048.3
6.72831 52558
6.74363 53080.3
6.75894 53638.1
6.77426 54207.9
6.78958 54790.4
6.80489 55384.5
6.82021 55919.7
6.83553 56405.4
6.85084 56776.4
6.86616 57080.4
6.88148 57278.6
6.89679 57395.1
6.91211 57383.7
6.92742 57285.7
6.94274 57139
6.95806 56939.7
6.97337 56695
6.98869 56416.5
7.00401 56124.3
7.01932 55811.5
7.03464 55469.6
7.04996 55091.2
7.06527 54684.4
7.08059 54274.6
7.0959 53848.8
7.11122 53421.8
7.12654 52966.6
7.14185 52529.3
7.15717 52100.5
7.17249 51728.5
7.1878 51404.9
7.20312 51125.9
7.21844 50904
7.23375 50718.2
7.24907 50547
7.26438 50392.7
7.2797 50234.8
7.29502 50071.9
7.31033 49889
7.32565 49714.3
7.34097 49527.9
7.35628 49339
7.3716 49162.3
7.38692 49039.1
7.40223 48965.1
7.41755 48966.9
7.43286 49036.7
7.44818 49160.5
7.4635 49324.3
7.47881 49526.7
7.49413 49771.6
7.50945 50008.5
7.52476 50210.6
7.54008 50340.8
7.55539 50363.5
7.57071 50299.4
7.58603 50113.9
7.60134 49874
7.61666 49574.6
7.63198 49270.3
7.64729 48945.5
7.66261 48653.6
7.67793 48445.7
7.69324 48351.2
7.70856 48398
7.72387 48569.8
7.73919 48849.3
7.75451 49193
7.76982 49574.5
7.78514 49935.1
7.80046 50228.1
7.81577 50409
7.83109 50439.2
7.84641 50334.2
7.86172 50083.6
7.87704 49714.4
7.89235 49270.1
7.90767 48796.4
7.92299 48305.9
7.9383 47822.9
7.95362 47372.8
7.96894 46950.7
7.98425 46548.4
7.99957 46169.1
8.01489 45841.9
8.0302 45523.8
8.04552 45217.2
8.06083 44949.3
8.07615 44724.9
8.09147 44558.3
8.10678 44465.7
8.1221 44397.7
8.13742 44415.4
8.15273 44487.3
8.16805 44628.7
8.18337 44788
8.19868 44977.1
8.214 45201.4
8.22931 45450.7
8.24463 45708.6
8.25995 45904.4
8.27526 46027.2
8.29058 46093.1
8.3059 46147.4
8.32121 46147.1
8.33653 46118.3
8.35185 46043.2
8.36716 45904
8.38248 45767.7
8.39779 45643.1
8.41311 45518.7
8.42843 45383
8.44374 45255.3
8.45906 45130.2
8.47438 44993
8.48969 44832.4
8.50501 44686.1
8.52032 44520.8
8.53564 44338.4
8.55096 44180.6
8.56627 43996.7
8.58159 43845.1
8.59691 43674.7
8.61222 43561
8.62754 43454.1
8.64286 43394.3
8.65817 43408.7
8.67349 43489.1
8.6888 43611.5
8.70412 43823.5
8.71944 44178.8
8.73475 44651
8.75007 45239.9
8.76539 45937.1
8.7807 46726.6
8.79602 47502.4
8.81134 48215.1
8.82665 48785.3
8.84197 49248.5
8.85728 49526.3
8.8726 49671.1
8.88792 49700
8.90323 49728.9
8.91855 49768.2
8.93387 49844.1
8.94918 49993.5
8.9645 50166.9
8.97982 50328
8.99513 50402.7
9.01045 50369.1
9.02576 50137.4
9.04108 49731.7
9.0564 49142.6
9.07171 48427.3
9.08703 47660.7
9.10235 46849.9
9.11766 46093.3
9.13298 45412.4
9.1483 44816.3
9.16361 44325.8
9.17893 43927.3
9.19424 43579.1
9.20956 43245.7
9.22488 42895
9.24019 42582.6
9.25551 42314.5
9.27083 42083.5
9.28614 41840.8
9.30146 41619.7
9.31678 41411.7
9.33209 41276.1
9.34741 41151.6
9.36272 41045.8
9.37804 40947.5
9.39336 40892.8
9.40867 40856.2
9.42399 40845
9.43931 40885.5
9.45462 40974.7
9.46994 41079.5
9.48525 41195.6
9.50057 41342.6
9.51589 41514.2
9.5312 41652.8
9.54652 41753.6
9.56184 41796.3
9.57715 41748.8
9.59247 41615.7
9.60779 41418.1
9.6231 41172.2
9.63842 40902.7
9.65373 40602.2
9.66905 40307.4
9.68437 40056.2
9.69968 39892
9.715 39772.5
9.73032 39705.9
9.74563 39651.1
9.76095 39628.2
9.77627 39651.3
9.79158 39696.8
9.8069 39768.3
9.82221 39840
9.83753 39909.8
9.85285 39958.6
9.86816 39986.8
9.88348 40031.3
9.8988 40097.1
9.91411 40205.1
9.92943 40344.8
9.94475 40522.1
9.96006 40713.1
9.97538 40924.8
9.99069 41133.6
10.006 41320.1
10.0213 41590.5
10.0366 41844.7
10.052 42110.8
10.0673 42356.1
10.0826 42594.6
10.0979 42853
10.1132 43104.6
10.1285 43414.7
10.1439 43735
10.1592 44049.9
10.1745 44299.9
10.1898 44469.3
10.2051 44547.8
10.2204 44576.8
10.2358 44584.2
10.2511 44592.2
10.2664 44610.6
10.2817 44707.8
10.297 44874.4
10.3123 45139.8
10.3277 45359.4
10.343 45539.8
10.3583 45599.3
10.3736 45575.7
10.3889 45482.8
10.4042 45318.5
10.4196 45092.6
10.4349 44831.8
10.4502 44541.8
10.4655 44314
10.4808 44117.4
10.4961 43969.4
10.5115 43845.3
10.5268 43792.8
10.5421 43816.8
10.5574 43884.6
10.5727 43982.4
10.588 44063.1
10.6033 44145
10.6187 44203
10.634 44221.5
10.6493 44176.5
10.6646 44072.8
10.6799 43917.8
10.6952 43712.8
10.7106 43520.6
10.7259 43344.6
10.7412 43197.2
10.7565 43087.9
10.7718 43046.6
10.7871 43029.8
10.8025 43011.8
10.8178 43017.7
10.8331 43006.1
10.8484 42944.9
10.8637 42803.5
10.879 42600.2
10.8944 42360.3
10.9097 42100.8
10.925 41829.1
10.9403 41527.2
10.9556 41256.7
10.9709 41011.9
10.9863 40786.5
11.0016 40579
11.0169 40379.5
11.0322 40182.9
11.0475 39987.6
11.0628 39780
11.0782 39533.7
11.0935 39307.2
11.1088 39083.9
11.1241 38882.2
11.1394 38694.6
11.1547 38513
11.1701 38335.8
11.1854 38172.3
11.2007 38013.1
11.216 37844.6
11.2313 37696.9
11.2466 37558.3
11.262 37433.3
11.2773 37333.8
11.2926 37275.4
11.3079 37236.4
11.3232 37216.8
11.3385 37182.2
11.3538 37137.5
11.3692 37090.5
11.3845 37061.7
11.3998 37061.7
11.4151 37021.4
11.4304 37001.6
11.4457 36987.7
11.4611 37001.8
11.4764 37027.1
11.4917 37071.1
11.507 37107
11.5223 37168.2
11.5376 37229.2
11.553 37265.4
11.5683 37284
11.5836 37298.8
11.5989 37311.7
11.6142 37308.1
11.6295 37273.3
11.6449 37199.1
11.6602 37105.4
11.6755 37023
11.6908 36954.8
11.7061 36912.4
11.7214 36901.5
11.7368 36923.4
11.7521 36952
11.7674 37017.1
11.7827 37032.5
11.798 37066.5
11.8133 37045.2
11.8287 37003.5
11.844 36975.4
11.8593 36934.2
11.8746 36896.1
11.8899 36892
11.9052 36860.7
11.9206 36842.3
11.9359 36824.5
11.9512 36836
11.9665 36862.9
11.9818 36909.6
11.9971 36944.2
12.0125 36973.2
12.0278 36964.9
12.0431 36959.6
12.0584 36948.1
12.0737 36911.7
12.089 36877
12.1044 36848
12.1197 36806.7
12.135 36779.4
12.1503 36768.6
12.1656 36736.5
12.1809 36698.8
12.1962 36673.5
12.2116 36644.4
12.2269 36624.8
12.2422 36606.9
12.2575 36601.5
12.2728 36586.4
12.2881 36573.5
12.3035 36567.3
12.3188 36557.8
12.3341 36546.3
12.3494 36519.9
12.3647 36490.5
12.38 36457.6
12.3954 36424.3
12.4107 36411.2
12.426 36389.2
12.4413 36363.6
12.4566 36321.1
12.4719 36281.5
12.4873 36240.7
12.5026 36182
12.5179 36098.3
12.5332 36034.1
12.5485 36000.8
12.5638 35973.4
12.5792 35970.2
12.5945 35976.6
12.6098 35984
12.6251 35982.1
12.6404 35990.6
12.6557 35982.7
12.6711 36002.7
12.6864 36008.6
12.7017 36000
12.717 35995.7
12.7323 36017.1
12.7476 36050.6
12.763 36102.3
12.7783 36161.2
12.7936 36222.9
12.8089 36313
12.8242 36414.1
12.8395 36500.1
12.8549 36583.9
12.8702 36565.6
12.8855 36515.9
12.9008 36459.9
12.9161 36398.1
12.9314 36303
12.9467 36182
12.9621 36105.8
12.9774 36043.2
12.9927 35997.3
13.008 35985.1
13.0233 35975.2
13.0386 35973.5
13.054 35979.1
13.0693 35957.3
13.0846 35927.7
13.0999 35940.3
13.1152 35960
13.1305 35947.9
13.1459 35920.2
13.1612 35914.3
13.1765 35893.7
13.1918 35882.4
13.2071 35883.7
13.2224 35887
13.2378 35883.5
13.2531 35898.2
13.2684 35941.3
13.2837 35976.7
13.299 36003.1
13.3143 36047.3
13.3297 36080.5
13.345 36140.3
13.3603 36229.3
13.3756 36335.5
13.3909 36474
13.4062 36618.7
13.4216 36809
13.4369 37009.7
13.4522 37189.3
13.4675 37374.7
13.4828 37554.9
13.4981 37707.9
13.5135 37784.7
13.5288 37817.9
13.5441 37871.1
13.5594 37945.5
13.5747 38013.1
13.59 38044.4
13.6054 38024.9
13.6207 37965.9
13.636 37858.8
13.6513 37674.7
13.6666 37484.7
13.6819 37275.2
13.6973 37068.2
13.7126 36864.8
13.7279 36716
13.7432 36592.8
13.7585 36492.8
13.7738 36421.6
13.7891 36331.3
13.8045 36241.4
13.8198 36163.6
13.8351 36100.3
13.8504 36071.9
13.8657 36050.7
13.881 36039
13.8964 36055.1
13.9117 36095.7
13.927 36118.5
13.9423 36116.7
13.9576 36114.9
13.9729 36095.5
13.9883 36047.9
14.0036 35979.6
14.0189 35889.4
14.0342 35770.2
14.0495 35658.7
14.0648 35548.2
14.0802 35411.3
14.0955 35247
14.1108 35118.4
14.1261 34987.9
14.1414 34875.7
14.1567 34778.1
14.1721 34690
14.1874 34625.9
14.2027 34561.1
14.218 34500.6
14.2333 34468.6
14.2486 34437
14.264 34415.1
14.2793 34403
14.2946 34367.3
14.3099 34332.6
14.3252 34279.8
14.3405 34226.6
14.3559 34176.2
14.3712 34128.4
14.3865 34109.4
14.4018 34086.7
14.4171 34086
14.4324 34064.2
14.4478 34040.5
14.4631 34023.1
14.4784 34022.7
14.4937 34023.6
14.509 34048.5
14.5243 34070.9
14.5397 34098.5
14.555 34124.2
14.5703 34151.3
14.5856 34161.9
14.6009 34160.5
14.6162 34150.6
14.6315 34098.4
14.6469 34063.7
14.6622 34031.6
14.6775 34003.2
14.6928 33952.7
14.7081 33899.7
14.7234 33867.2
14.7388 33859.4
14.7541 33811.2
14.7694 33723.3
14.7847 33665.5
14.8 33632.6
14.8153 33581.9
14.8307 33515.3
14.846 33461.9
14.8613 33409.3
14.8766 33365.8
14.8919 33342.4
14.9072 33316.4
14.9226 33286.1
14.9379 33229.5
14.9532 33173
14.9685 33167
14.9838 33169.4
14.9991 33176
15.0145 33144.6
15.0298 33101.7
15.0451 33078.8
15.0604 33070.2
15.0757 33066.3
15.091 33045.9
15.1064 33054
15.1217 33076.3
15.137 33086.2
15.1523 33098.2
15.1676 33122.9
15.1829 33123
15.1983 33122.5
15.2136 33140.6
15.2289 33181.5
15.2442 33226.8
15.2595 33269.3
15.2748 33310
15.2902 33350
15.3055 33389.8
15.3208 33444.4
15.3361 33489.9
15.3514 33535.2
15.3667 33575.4
15.382 33579.4
15.3974 33562.9
15.4127 33539.3
15.428 33504.3
15.4433 33497.2
15.4586 33484.2
15.4739 33417.8
15.4893 33364.9
15.5046 33320.2
15.5199 33280
15.5352 33255.7
15.5505 33233.3
15.5658 33213.9
15.5812 33203.2
15.5965 33212.5
15.6118 33200.5
15.6271 33167.1
15.6424 33132.4
15.6577 33081
15.6731 33061.9
15.6884 33040.4
15.7037 33012.2
15.719 32972.5
15.7343 32964.3
15.7496 32950.4
15.765 32898.7
15.7803 32872.4
15.7956 32836.2
15.8109 32809.5
15.8262 32803.6
15.8415 32770.9
15.8569 32706.4
15.8722 32642.7
15.8875 32562.8
15.9028 32487.1
15.9181 32450.2
15.9334 32378.6
15.9488 32334.8
15.9641 32315.8
15.9794 32297
15.9947 32304.4
16.01 32265.1
16.0253 32232.4
16.0407 32225.5
16.056 32193.5
16.0713 32163.3
16.0866 32145
16.1019 32134.7
16.1172 32113.6
16.1326 32109.9
16.1479 32109.6
16.1632 32128.3
16.1785 32135.5
16.1938 32133.2
16.2091 32127
16.2244 32101.7
16.2398 32026.8
16.2551 31996.8
16.2704 32026.4
16.2857 32050.2
16.301 32043.8
16.3163 32023
16.3317 31999.5
16.347 32010.7
16.3623 32023.1
16.3776 32014.6
16.3929 31994.8
16.4082 31970.8
16.4236 31963.6
16.4389 31952.9
16.4542 31923.6
16.4695 31872.3
16.4848 31844.6
16.5001 31840.4
16.5155 31821.7
16.5308 31780
16.5461 31740.5
16.5614 31704.3
16.5767 31665
16.592 31645.1
16.6074 31593.2
16.6227 31561
16.638 31553.1
16.6533 31550.8
16.6686 31511.5
16.6839 31469.3
16.6993 31448
16.7146 31414.1
16.7299 31396.7
16.7452 31404.2
16.7605 31401.5
16.7758 31403.2
16.7912 31384.8
16.8065 31345.2
16.8218 31316.5
16.8371 31279.1
16.8524 31236.1
16.8677 31246.5
16.8831 31223.4
16.8984 31176.3
16.9137 31142.2
16.929 31140.2
16.9443 31156.8
16.9596 31171.3
16.9749 31170.8
16.9903 31141.9
17.0056 31123.2
17.0209 31095.9
17.0362 31061.1
17.0515 31034.3
17.0668 31011.6
17.0822 30991.6
17.0975 30975.5
17.1128 30932
17.1281 30897.4
17.1434 30885
17.1587 30870.5
17.1741 30846.7
17.1894 30823.9
17.2047 30799.6
17.22 30781.8
17.2353 30745.3
17.2506 30712.6
17.266 30693.6
17.2813 30700.6
17.2966 30703.2
17.3119 30700.3
17.3272 30674.4
17.3425 30670.9
17.3579 30651.4
17.3732 30621.9
17.3885 30656.9
17.4038 30691.4
17.4191 30680.4
17.4344 30664
17.4498 30670.1
17.4651 30685.7
17.4804 30709.9
17.4957 30708.9
17.511 30674
17.5263 30642.3
17.5417 30611
17.557 30605.8
17.5723 30602.4
17.5876 30594.6
17.6029 30617.1
17.6182 30627.4
17.6336 30628.3
17.6489 30632.9
17.6642 30642.2
17.6795 30658.5
17.6948 30702.4
17.7101 30696.1
17.7255 30697.7
17.7408 30676.9
17.7561 30617.7
17.7714 30560.1
17.7867 30547.8
17.802 30583
17.8173 30580
17.8327 30542.6
17.848 30501.3
17.8633 30518.6
17.8786 30535
17.8939 30519.6
17.9092 30504.1
17.9246 30496.2
17.9399 30499.5
17.9552 30476
17.9705 30458.9
17.9858 30442.5
18.0011 30406.2
18.0165 30388.5
18.0318 30377.1
18.0471 30350
18.0624 30315.9
18.0777 30302.6
18.093 30304.1
18.1084 30312.1
18.1237 30296.5
18.139 30287.1
18.1543 30262.1
18.1696 30235.6
18.1849 30185.6
18.2003 30187.2
18.2156 30239.7
18.2309 30252.6
18.2462 30219.5
18.2615 30196.5
18.2768 30198.5
18.2922 30215.5
18.3075 30244.8
18.3228 30268.3
18.3381 30289.6
18.3534 30333
18.3687 30329
18.3841 30317
18.3994 30344.4
18.4147 30359.2
18.43 30367.5
18.4453 30366.2
18.4606 30353.8
18.476 30354.5
18.4913 30322.4
18.5066 30272
18.5219 30251.7
18.5372 30228.6
18.5525 30174.5
18.5679 30129.1
18.5832 30125.4
18.5985 30127.8
18.6138 30136.1
18.6291 30137
18.6444 30093.6
18.6597 30076.4
18.6751 30060.9
18.6904 30051.9
18.7057 30025.1
18.721 29971.3
18.7363 29923.9
18.7516 29930.5
18.767 29950.1
18.7823 29922
18.7976 29843.5
18.8129 29837.7
18.8282 29842.2
18.8435 29798.2
18.8589 29759.2
18.8742 29742.4
18.8895 29679.5
18.9048 29678
18.9201 29658.8
18.9354 29597.6
18.9508 29585
18.9661 29576.5
18.9814 29545.2
18.9967 29518.8
19.012 29487
19.0273 29499.7
19.0427 29509.7
19.058 29494.7
19.0733 29464.8
19.0886 29407
19.1039 29402.8
19.1192 29370.8
19.1346 29372
19.1499 29382.1
19.1652 29391.5
19.1805 29376.5
19.1958 29397.6
19.2111 29402.3
19.2265 29370.2
19.2418 29360.5
19.2571 29352.5
19.2724 29331.4
19.2877 29299.4
19.303 29259.3
19.3184 29219.4
19.3337 29192.4
19.349 29180.6
19.3643 29146.3
19.3796 29113.1
19.3949 29101.2
19.4102 29108
19.4256 29097.9
19.4409 29069.7
19.4562 29043.7
19.4715 29016.8
19.4868 28995.1
19.5021 28966.6
19.5175 28974.5
19.5328 28971.7
19.5481 28933.5
19.5634 28894.4
19.5787 28891.4
19.594 28894.3
19.6094 28904
19.6247 28901.7
19.64 28868.2
19.6553 28856.1
19.6706 28826
19.6859 28809.5
19.7013 28800.5
19.7166 28791
19.7319 28800.9
19.7472 28770.2
19.7625 28743.7
19.7778 28725.8
19.7932 28737.8
19.8085 28741.3
19.8238 28742.8
19.8391 28718.3
19.8544 28674.4
19.8697 28650.5
19.8851 28648.2
19.9004 28642.5
19.9157 28595.9
19.931 28588.8
19.9463 28606.8
19.9616 28720
19.977 28739.8
19.9923 28613
20.0076 28583.5
20.0229 28573.3
20.0382 28555
20.0535 28517.2
20.0689 28530.5
20.0842 28549.1
20.0995 28516.1
20.1148 28488.3
20.1301 28470.4
20.1454 28458.3
20.1608 28465.9
20.1761 28490.2
20.1914 28482.1
20.2067 28448.1
20.222 28419.2
20.2373 28434
20.2526 28451.3
20.268 28438.5
20.2833 28441.5
20.2986 28442.4
20.3139 28442.8
20.3292 28428.6
20.3445 28445.7
20.3599 28463.1
20.3752 28445.1
20.3905 28432.2
20.4058 28440.2
20.4211 28416.1
20.4364 28415.2
20.4518 28423.6
20.4671 28439.6
20.4824 28456.9
20.4977 28428.4
20.513 28419.4
20.5283 28430
20.5437 28416.4
20.559 28442.3
20.5743 28397
20.5896 28391.3
20.6049 28416.2
20.6202 28396.4
20.6356 28387.9
20.6509 28386.9
20.6662 28366.2
20.6815 28370.7
20.6968 28374.9
20.7121 28339.9
20.7275 28315.2
20.7428 28325
20.7581 28316.9
20.7734 28321.3
20.7887 28312.3
20.804 28313.6
20.8194 28291.7
20.8347 28288.4
20.85 28291.5
20.8653 28262.3
20.8806 28224.4
20.8959 28203.4
20.9113 28223.8
20.9266 28256.3
20.9419 28223.7
20.9572 28205.3
20.9725 28208.4
20.9878 28169.6
21.0031 28162.4
21.0185 28207.8
21.0338 28223.5
21.0491 28194.7
21.0644 28159.3
21.0797 28156.7
21.095 28193.3
21.1104 28216.1
21.1257 28233.1
21.141 28220.3
21.1563 28185.6
21.1716 28200.6
21.1869 28234.5
21.2023 28201.1
21.2176 28154
21.2329 28182.8
21.2482 28223.2
21.2635 28207.7
21.2788 28193.3
21.2942 28187.5
21.3095 28125.8
21.3248 28165.5
21.3401 28172
21.3554 28156.1
21.3707 28080.4
21.3861 28107.1
21.4014 28115.2
21.4167 28103.3
21.432 28136.6
21.4473 28183.2
21.4626 28176.1
21.478 28119.8
21.4933 28140.1
21.5086 28123.6
21.5239 28104.7
21.5392 28143
21.5545 28100.8
21.5699 28057
21.5852 28069.5
21.6005 28095.5
21.6158 28079.1
21.6311 28054.2
21.6464 28061
21.6618 28058.2
21.6771 28101.5
21.6924 28118
21.7077 28127.3
21.723 28112.9
21.7383 28098.5
21.7537 28133.5
21.769 28158.9
21.7843 28152.9
21.7996 28137.9
21.8149 28150
21.8302 28115.1
21.8455 28135
21.8609 28155.9
21.8762 28155.8
21.8915 28146.7
21.9068 28115.4
21.9221 28140.9
21.9374 28173.2
21.9528 28181.9
21.9681 28193.6
21.9834 28203.9
21.9987 28177.3
22.014 28153.1
22.0293 28176.1
22.0447 28185
22.06 28238.3
22.0753 28257.1
22.0906 28212
22.1059 28201.5
22.1212 28251.2
22.1366 28282.4
22.1519 28293.2
22.1672 28286.9
22.1825 28317.8
22.1978 28341.2
22.2131 28369.5
22.2285 28349.3
22.2438 28329
22.2591 28324.1
22.2744 28301.9
22.2897 28263.5
22.305 28297.2
22.3204 28315.3
22.3357 28344.3
22.351 28373.7
22.3663 28390.3
22.3816 28426
22.3969 28434.3
22.4123 28425.6
22.4276 28419.7
22.4429 28372.9
22.4582 28397.8
22.4735 28430.9
22.4888 28418.5
22.5042 28429.6
22.5195 28456.3
22.5348 28433.3
22.5501 28442.8
22.5654 28449
22.5807 28425.7
22.596 28397.3
22.6114 28473.4
22.6267 28467.5
22.642 28432.2
22.6573 28443.6
22.6726 28420.2
22.6879 28455.5
22.7033 28430.5
22.7186 28445.9
22.7339 28454.1
22.7492 28462.7
22.7645 28474.1
22.7798 28475.9
22.7952 28469.1
22.8105 28456.9
22.8258 28464.8
22.8411 28446.4
22.8564 28496.2
22.8717 28537.1
22.8871 28533.4
22.9024 28534.9
22.9177 28573.6
22.933 28554.7
22.9483 28566.6
22.9636 28580.6
22.979 28598.4
22.9943 28465.9
